{
  "resourceType": "Bundle",
  "id": "tests-PreexistingDiagnosis-bundle",
  "type": "transaction",
  "entry": [ {
    "resource": {
      "resourceType": "Encounter",
      "id": "encounter-PreexistingDiagnosis-1",
      "status": "finished",
      "class": {
        "system": "http://terminology.hl7.org/CodeSystem/v3-ActCode",
        "version": "2.0.0",
        "code": "AMB",
        "display": "ambulatory"
      },
      "subject": {
        "reference": "Patient/PreexistingDiagnosis"
      },
      "period": {
        "start": "2002-02-02T06:00:00-06:00",
        "end": "2002-02-02T06:30:00-06:00"
      }
    },
    "request": {
      "method": "PUT",
      "url": "Encounter/encounter-PreexistingDiagnosis-1"
    }
  }, {
    "resource": {
      "resourceType": "Condition",
      "id": "condition-PreexistingDiagnosis-1",
      "clinicalStatus": {
        "coding": [ {
          "system": "http://terminology.hl7.org/CodeSystem/condition-clinical",
          "version": "0.5.0",
          "code": "active",
          "display": "Active"
        } ]
      },
      "verificationStatus": {
        "coding": [ {
          "system": "http://terminology.hl7.org/CodeSystem/condition-ver-status",
          "version": "0.5.0",
          "code": "confirmed",
          "display": "Confirmed"
        } ]
      },
      "code": {
        "coding": [ {
          "system": "http://snomed.info/sct",
          "version": "2020-09",
          "code": "427889009",
          "display": "Hypertension associated with transplantation (disorder)"
        } ]
      },
      "subject": {
        "reference": "Patient/PreexistingDiagnosis"
      }
    },
    "request": {
      "method": "PUT",
      "url": "Condition/condition-PreexistingDiagnosis-1"
    }
  }, {
    "resource": {
      "resourceType": "Patient",
      "id": "PreexistingDiagnosis",
      "active": true,
      "name": [ {
        "text": "RecommendBP Patient",
        "family": "Patient",
        "given": [ "RecommendBP" ]
      } ],
      "gender": "male",
      "birthDate": "1982-08-10"
    },
    "request": {
      "method": "PUT",
      "url": "Patient/PreexistingDiagnosis"
    }
  }, {
    "resource": {
      "resourceType": "Observation",
      "id": "observation-PreexistingDiagnosis-1",
      "status": "final",
      "category": [ {
        "coding": [ {
          "system": "http://hl7.org/fhir/observation-category",
          "code": "vital-signs",
          "display": "Vital Signs",
          "userSelected": false
        } ],
        "text": "Vital Signs"
      } ],
      "code": {
        "coding": [ {
          "system": "http://loinc.org",
          "version": "2.68",
          "code": "55284-4",
          "display": "Blood pressure systolic and diastolic"
        } ],
        "text": "Blood pressure systolic and diastolic"
      },
      "subject": {
        "reference": "Patient/PreexistingDiagnosis"
      },
      "encounter": {
        "reference": "Encounter/encounter-PreexistingDiagnosis-1"
      },
      "effectiveDateTime": "2002-02-02T06:15:00-06:00",
      "component": [ {
        "code": {
          "coding": [ {
            "system": "http://loinc.org",
            "code": "8480-6",
            "display": "Systolic blood pressure",
            "userSelected": false
          } ],
          "text": "Systolic blood pressure"
        },
        "valueQuantity": {
          "value": 165,
          "unit": "mmHg",
          "system": "http://unitsofmeasure.org",
          "code": "mm[Hg]"
        }
      }, {
        "code": {
          "coding": [ {
            "system": "http://loinc.org",
            "code": "8462-4",
            "display": "Diastolic blood pressure",
            "userSelected": false
          } ],
          "text": "Diastolic blood pressure"
        },
        "valueQuantity": {
          "value": 115,
          "unit": "mmHg",
          "system": "http://unitsofmeasure.org",
          "code": "mm[Hg]"
        }
      } ]
    },
    "request": {
      "method": "PUT",
      "url": "Observation/observation-PreexistingDiagnosis-1"
    }
  } ]
}