{
  "hookInstance": "test",
  "fhirServer": "https://api.logicahealth.org/htnu18r42/open",
  "hook": "patient-view",
  "context": {
    "userId": "Practitioner/example",
    "patientId": "M-BPControlledVarLow"
  },
  "prefetch": {
    "item1": {
      "response": {
        "status": "200 OK"
      },
      "resource": {
        "resourceType": "Bundle",
        "type": "transaction",
        "entry": [
          {
            "resource": {
              "resourceType": "Encounter",
              "id": "encounter-M-BPControlledVarLow-4",
              "status": "finished",
              "class": {
                "system": "http://terminology.hl7.org/CodeSystem/v3-ActCode",
                "code": "AMB"
              },
              "type": [
                {
                  "coding": [
                    {
                      "system": "http://snomed.info/sct",
                      "code": "162673000",
                      "display": "General examination of patient (procedure)"
                    }
                  ],
                  "text": "General examination of patient (procedure)"
                }
              ],
              "subject": {
                "reference": "Patient/M-BPControlledVarLow"
              },
              "period": {
                "start": "2023-03-21T00:00:00-04:00",
                "end": "2023-03-21T23:59:59-04:00"
              }
            },
            "request": {
              "method": "PUT",
              "url": "request-url"
            }
          },
          {
            "resource": {
              "resourceType": "Encounter",
              "id": "encounter-M-BPControlledVarLow-2",
              "status": "finished",
              "class": {
                "system": "http://terminology.hl7.org/CodeSystem/v3-ActCode",
                "code": "AMB"
              },
              "type": [
                {
                  "coding": [
                    {
                      "system": "http://snomed.info/sct",
                      "code": "162673000",
                      "display": "General examination of patient (procedure)"
                    }
                  ],
                  "text": "General examination of patient (procedure)"
                }
              ],
              "subject": {
                "reference": "Patient/M-BPControlledVarLow"
              },
              "period": {
                "start": "2023-01-21T00:00:00-04:00",
                "end": "2023-01-21T23:59:59-04:00"
              }
            },
            "request": {
              "method": "PUT",
              "url": "request-url"
            }
          },
          {
            "resource": {
              "resourceType": "Encounter",
              "id": "encounter-M-BPControlledVarLow-3",
              "status": "finished",
              "class": {
                "system": "http://terminology.hl7.org/CodeSystem/v3-ActCode",
                "code": "AMB"
              },
              "type": [
                {
                  "coding": [
                    {
                      "system": "http://snomed.info/sct",
                      "code": "162673000",
                      "display": "General examination of patient (procedure)"
                    }
                  ],
                  "text": "General examination of patient (procedure)"
                }
              ],
              "subject": {
                "reference": "Patient/M-BPControlledVarLow"
              },
              "period": {
                "start": "2023-02-18T00:00:00-04:00",
                "end": "2023-02-18T23:59:59-04:00"
              }
            },
            "request": {
              "method": "PUT",
              "url": "request-url"
            }
          },
          {
            "resource": {
              "resourceType": "Encounter",
              "id": "encounter-M-BPControlledVarLow-1",
              "status": "finished",
              "class": {
                "system": "http://terminology.hl7.org/CodeSystem/v3-ActCode",
                "code": "AMB"
              },
              "type": [
                {
                  "coding": [
                    {
                      "system": "http://snomed.info/sct",
                      "code": "162673000",
                      "display": "General examination of patient (procedure)"
                    }
                  ],
                  "text": "General examination of patient (procedure)"
                }
              ],
              "subject": {
                "reference": "Patient/M-BPControlledVarLow"
              },
              "period": {
                "start": "2022-12-21T00:00:00-04:00",
                "end": "2022-12-21T23:59:59-04:00"
              }
            },
            "request": {
              "method": "PUT",
              "url": "request-url"
            }
          },
          {
            "resource": {
              "resourceType": "Condition",
              "id": "condition-M-BPControlledVarLow-1",
              "note": [
                {
                  "text": "Indicates Preexisting Diagnosis of Hypertension"
                }
              ],
              "category": [
                {
                  "coding": [
                    {
                      "system": "http://terminology.hl7.org/CodeSystem/condition-category",
                      "code": "problem-list-item",
                      "display": "Problem List Item"
                    }
                  ],
                  "text": "Problem List Item"
                }
              ],
              "clinicalStatus": {
                "coding": [
                  {
                    "system": "http://terminology.hl7.org/CodeSystem/condition-clinical",
                    "code": "active"
                  }
                ]
              },
              "verificationStatus": {
                "coding": [
                  {
                    "system": "http://terminology.hl7.org/CodeSystem/condition-ver-status",
                    "code": "confirmed"
                  }
                ]
              },
              "code": {
                "coding": [
                  {
                    "system": "http://snomed.info/sct",
                    "code": "59621000",
                    "display": "Hypertension"
                  }
                ],
                "text": "Hypertension"
              },
              "subject": {
                "reference": "Patient/M-BPControlledVarLow"
              },
              "onsetDateTime": "2023-09-16",
              "recordedDate": "2016-12-22T15:16:21-05:00"
            },
            "request": {
              "method": "PUT",
              "url": "request-url"
            }
          },
          {
            "resource": {
              "resourceType": "Patient",
              "id": "M-BPControlledVarLow",
              "active": true,
              "name": [
                {
                  "text": "BP Controlled Var Low",
                  "family": "VarLow",
                  "given": [
                    "BP Controlled"
                  ]
                }
              ],
              "gender": "male",
              "birthDate": "1969-11-29"
            },
            "request": {
              "method": "PUT",
              "url": "request-url"
            }
          },
          {
            "resource": {
              "resourceType": "Observation",
              "id": "observation-M-BPControlledVarLow-20",
              "status": "final",
              "note": [
                {
                  "text": "Home Blood Pressure Reading"
                }
              ],
              "extension": [
                {
                  "url": "http://hl7.org/fhir/us/vitals/StructureDefinition/MeasurementSettingExt",
                  "valueCoding": {
                    "system": "http://snomed.info/sct",
                    "code": "264362003"
                  }
                }
              ],
              "category": [
                {
                  "coding": [
                    {
                      "system": "http://terminology.hl7.org/CodeSystem/observation-category",
                      "code": "vital-signs",
                      "display": "vital-signs"
                    }
                  ]
                }
              ],
              "code": {
                "coding": [
                  {
                    "system": "http://loinc.org",
                    "code": "55284-4",
                    "display": "Blood Pressure"
                  }
                ],
                "text": "Blood Pressure"
              },
              "subject": {
                "reference": "Patient/M-BPControlledVarLow"
              },
              "encounter": {
                "reference": "Encounter/encounter-M-BPControlledVarLow-1"
              },
              "effectiveDateTime": "2023-03-18T15:16:21-05:00",
              "component": [
                {
                  "code": {
                    "coding": [
                      {
                        "system": "http://loinc.org",
                        "code": "8462-4",
                        "display": "Diastolic Blood Pressure"
                      }
                    ],
                    "text": "Diastolic Blood Pressure"
                  },
                  "valueQuantity": {
                    "value": 80,
                    "unit": "mm[Hg]",
                    "system": "http://unitsofmeasure.org",
                    "code": "mm[Hg]"
                  }
                },
                {
                  "code": {
                    "coding": [
                      {
                        "system": "http://loinc.org",
                        "code": "8480-6",
                        "display": "Systolic Blood Pressure"
                      }
                    ],
                    "text": "Systolic Blood Pressure"
                  },
                  "valueQuantity": {
                    "value": 130,
                    "unit": "mm[Hg]",
                    "system": "http://unitsofmeasure.org",
                    "code": "mm[Hg]"
                  }
                }
              ]
            },
            "request": {
              "method": "PUT",
              "url": "request-url"
            }
          },
          {
            "resource": {
              "resourceType": "Observation",
              "id": "observation-M-BPControlledVarLow-16",
              "status": "final",
              "note": [
                {
                  "text": "Home Blood Pressure Reading"
                }
              ],
              "extension": [
                {
                  "url": "http://hl7.org/fhir/us/vitals/StructureDefinition/MeasurementSettingExt",
                  "valueCoding": {
                    "system": "http://snomed.info/sct",
                    "code": "264362003"
                  }
                }
              ],
              "category": [
                {
                  "coding": [
                    {
                      "system": "http://terminology.hl7.org/CodeSystem/observation-category",
                      "code": "vital-signs",
                      "display": "vital-signs"
                    }
                  ]
                }
              ],
              "code": {
                "coding": [
                  {
                    "system": "http://loinc.org",
                    "code": "55284-4",
                    "display": "Blood Pressure"
                  }
                ],
                "text": "Blood Pressure"
              },
              "subject": {
                "reference": "Patient/M-BPControlledVarLow"
              },
              "encounter": {
                "reference": "Encounter/encounter-M-BPControlledVarLow-1"
              },
              "effectiveDateTime": "2023-03-06T15:16:21-05:00",
              "component": [
                {
                  "code": {
                    "coding": [
                      {
                        "system": "http://loinc.org",
                        "code": "8462-4",
                        "display": "Diastolic Blood Pressure"
                      }
                    ],
                    "text": "Diastolic Blood Pressure"
                  },
                  "valueQuantity": {
                    "value": 71,
                    "unit": "mm[Hg]",
                    "system": "http://unitsofmeasure.org",
                    "code": "mm[Hg]"
                  }
                },
                {
                  "code": {
                    "coding": [
                      {
                        "system": "http://loinc.org",
                        "code": "8480-6",
                        "display": "Systolic Blood Pressure"
                      }
                    ],
                    "text": "Systolic Blood Pressure"
                  },
                  "valueQuantity": {
                    "value": 111,
                    "unit": "mm[Hg]",
                    "system": "http://unitsofmeasure.org",
                    "code": "mm[Hg]"
                  }
                }
              ]
            },
            "request": {
              "method": "PUT",
              "url": "request-url"
            }
          },
          {
            "resource": {
              "resourceType": "Observation",
              "id": "observation-M-BPControlledVarLow-3",
              "status": "final",
              "note": [
                {
                  "text": "Home Blood Pressure Reading"
                }
              ],
              "extension": [
                {
                  "url": "http://hl7.org/fhir/us/vitals/StructureDefinition/MeasurementSettingExt",
                  "valueCoding": {
                    "system": "http://snomed.info/sct",
                    "code": "264362003"
                  }
                }
              ],
              "category": [
                {
                  "coding": [
                    {
                      "system": "http://terminology.hl7.org/CodeSystem/observation-category",
                      "code": "vital-signs",
                      "display": "vital-signs"
                    }
                  ]
                }
              ],
              "code": {
                "coding": [
                  {
                    "system": "http://loinc.org",
                    "code": "55284-4",
                    "display": "Blood Pressure"
                  }
                ],
                "text": "Blood Pressure"
              },
              "subject": {
                "reference": "Patient/M-BPControlledVarLow"
              },
              "encounter": {
                "reference": "Encounter/encounter-M-BPControlledVarLow-1"
              },
              "effectiveDateTime": "2023-01-26T15:16:21-05:00",
              "component": [
                {
                  "code": {
                    "coding": [
                      {
                        "system": "http://loinc.org",
                        "code": "8462-4",
                        "display": "Diastolic Blood Pressure"
                      }
                    ],
                    "text": "Diastolic Blood Pressure"
                  },
                  "valueQuantity": {
                    "value": 74,
                    "unit": "mm[Hg]",
                    "system": "http://unitsofmeasure.org",
                    "code": "mm[Hg]"
                  }
                },
                {
                  "code": {
                    "coding": [
                      {
                        "system": "http://loinc.org",
                        "code": "8480-6",
                        "display": "Systolic Blood Pressure"
                      }
                    ],
                    "text": "Systolic Blood Pressure"
                  },
                  "valueQuantity": {
                    "value": 118,
                    "unit": "mm[Hg]",
                    "system": "http://unitsofmeasure.org",
                    "code": "mm[Hg]"
                  }
                }
              ]
            },
            "request": {
              "method": "PUT",
              "url": "request-url"
            }
          },
          {
            "resource": {
              "resourceType": "Observation",
              "id": "observation-M-BPControlledVarLow-2",
              "status": "final",
              "note": [
                {
                  "text": "Home Blood Pressure Reading"
                }
              ],
              "extension": [
                {
                  "url": "http://hl7.org/fhir/us/vitals/StructureDefinition/MeasurementSettingExt",
                  "valueCoding": {
                    "system": "http://snomed.info/sct",
                    "code": "264362003"
                  }
                }
              ],
              "category": [
                {
                  "coding": [
                    {
                      "system": "http://terminology.hl7.org/CodeSystem/observation-category",
                      "code": "vital-signs",
                      "display": "vital-signs"
                    }
                  ]
                }
              ],
              "code": {
                "coding": [
                  {
                    "system": "http://loinc.org",
                    "code": "55284-4",
                    "display": "Blood Pressure"
                  }
                ],
                "text": "Blood Pressure"
              },
              "subject": {
                "reference": "Patient/M-BPControlledVarLow"
              },
              "encounter": {
                "reference": "Encounter/encounter-M-BPControlledVarLow-1"
              },
              "effectiveDateTime": "2023-01-23T15:16:21-05:00",
              "component": [
                {
                  "code": {
                    "coding": [
                      {
                        "system": "http://loinc.org",
                        "code": "8462-4",
                        "display": "Diastolic Blood Pressure"
                      }
                    ],
                    "text": "Diastolic Blood Pressure"
                  },
                  "valueQuantity": {
                    "value": 90.0,
                    "unit": "mm[Hg]",
                    "system": "http://unitsofmeasure.org",
                    "code": "mm[Hg]"
                  }
                },
                {
                  "code": {
                    "coding": [
                      {
                        "system": "http://loinc.org",
                        "code": "8480-6",
                        "display": "Systolic Blood Pressure"
                      }
                    ],
                    "text": "Systolic Blood Pressure"
                  },
                  "valueQuantity": {
                    "value": 150.0,
                    "unit": "mm[Hg]",
                    "system": "http://unitsofmeasure.org",
                    "code": "mm[Hg]"
                  }
                }
              ]
            },
            "request": {
              "method": "PUT",
              "url": "request-url"
            }
          },
          {
            "resource": {
              "resourceType": "Observation",
              "id": "observation-M-BPControlledVarLow-17",
              "status": "final",
              "note": [
                {
                  "text": "Home Blood Pressure Reading"
                }
              ],
              "extension": [
                {
                  "url": "http://hl7.org/fhir/us/vitals/StructureDefinition/MeasurementSettingExt",
                  "valueCoding": {
                    "system": "http://snomed.info/sct",
                    "code": "264362003"
                  }
                }
              ],
              "category": [
                {
                  "coding": [
                    {
                      "system": "http://terminology.hl7.org/CodeSystem/observation-category",
                      "code": "vital-signs",
                      "display": "vital-signs"
                    }
                  ]
                }
              ],
              "code": {
                "coding": [
                  {
                    "system": "http://loinc.org",
                    "code": "55284-4",
                    "display": "Blood Pressure"
                  }
                ],
                "text": "Blood Pressure"
              },
              "subject": {
                "reference": "Patient/M-BPControlledVarLow"
              },
              "encounter": {
                "reference": "Encounter/encounter-M-BPControlledVarLow-1"
              },
              "effectiveDateTime": "2023-03-09T15:16:21-05:00",
              "component": [
                {
                  "code": {
                    "coding": [
                      {
                        "system": "http://loinc.org",
                        "code": "8462-4",
                        "display": "Diastolic Blood Pressure"
                      }
                    ],
                    "text": "Diastolic Blood Pressure"
                  },
                  "valueQuantity": {
                    "value": 91,
                    "unit": "mm[Hg]",
                    "system": "http://unitsofmeasure.org",
                    "code": "mm[Hg]"
                  }
                },
                {
                  "code": {
                    "coding": [
                      {
                        "system": "http://loinc.org",
                        "code": "8480-6",
                        "display": "Systolic Blood Pressure"
                      }
                    ],
                    "text": "Systolic Blood Pressure"
                  },
                  "valueQuantity": {
                    "value": 151,
                    "unit": "mm[Hg]",
                    "system": "http://unitsofmeasure.org",
                    "code": "mm[Hg]"
                  }
                }
              ]
            },
            "request": {
              "method": "PUT",
              "url": "request-url"
            }
          },
          {
            "resource": {
              "resourceType": "Observation",
              "id": "observation-M-BPControlledVarLow-21",
              "status": "final",
              "note": [
                {
                  "text": "Home Blood Pressure Reading"
                }
              ],
              "extension": [
                {
                  "url": "http://hl7.org/fhir/us/vitals/StructureDefinition/MeasurementSettingExt",
                  "valueCoding": {
                    "system": "http://snomed.info/sct",
                    "code": "264362003"
                  }
                }
              ],
              "category": [
                {
                  "coding": [
                    {
                      "system": "http://terminology.hl7.org/CodeSystem/observation-category",
                      "code": "vital-signs",
                      "display": "vital-signs"
                    }
                  ]
                }
              ],
              "code": {
                "coding": [
                  {
                    "system": "http://loinc.org",
                    "code": "55284-4",
                    "display": "Blood Pressure"
                  }
                ],
                "text": "Blood Pressure"
              },
              "subject": {
                "reference": "Patient/M-BPControlledVarLow"
              },
              "encounter": {
                "reference": "Encounter/encounter-M-BPControlledVarLow-1"
              },
              "effectiveDateTime": "2023-03-20T15:16:21-05:00",
              "component": [
                {
                  "code": {
                    "coding": [
                      {
                        "system": "http://loinc.org",
                        "code": "8462-4",
                        "display": "Diastolic Blood Pressure"
                      }
                    ],
                    "text": "Diastolic Blood Pressure"
                  },
                  "valueQuantity": {
                    "value": 80,
                    "unit": "mm[Hg]",
                    "system": "http://unitsofmeasure.org",
                    "code": "mm[Hg]"
                  }
                },
                {
                  "code": {
                    "coding": [
                      {
                        "system": "http://loinc.org",
                        "code": "8480-6",
                        "display": "Systolic Blood Pressure"
                      }
                    ],
                    "text": "Systolic Blood Pressure"
                  },
                  "valueQuantity": {
                    "value": 130,
                    "unit": "mm[Hg]",
                    "system": "http://unitsofmeasure.org",
                    "code": "mm[Hg]"
                  }
                }
              ]
            },
            "request": {
              "method": "PUT",
              "url": "request-url"
            }
          },
          {
            "resource": {
              "resourceType": "Observation",
              "id": "observation-M-BPControlledVarLow-10",
              "status": "final",
              "note": [
                {
                  "text": "Home Blood Pressure Reading"
                }
              ],
              "extension": [
                {
                  "url": "http://hl7.org/fhir/us/vitals/StructureDefinition/MeasurementSettingExt",
                  "valueCoding": {
                    "system": "http://snomed.info/sct",
                    "code": "264362003"
                  }
                }
              ],
              "category": [
                {
                  "coding": [
                    {
                      "system": "http://terminology.hl7.org/CodeSystem/observation-category",
                      "code": "vital-signs",
                      "display": "vital-signs"
                    }
                  ]
                }
              ],
              "code": {
                "coding": [
                  {
                    "system": "http://loinc.org",
                    "code": "55284-4",
                    "display": "Blood Pressure"
                  }
                ],
                "text": "Blood Pressure"
              },
              "subject": {
                "reference": "Patient/M-BPControlledVarLow"
              },
              "encounter": {
                "reference": "Encounter/encounter-M-BPControlledVarLow-1"
              },
              "effectiveDateTime": "2023-02-16T15:16:21-05:00",
              "component": [
                {
                  "code": {
                    "coding": [
                      {
                        "system": "http://loinc.org",
                        "code": "8462-4",
                        "display": "Diastolic Blood Pressure"
                      }
                    ],
                    "text": "Diastolic Blood Pressure"
                  },
                  "valueQuantity": {
                    "value": 80,
                    "unit": "mm[Hg]",
                    "system": "http://unitsofmeasure.org",
                    "code": "mm[Hg]"
                  }
                },
                {
                  "code": {
                    "coding": [
                      {
                        "system": "http://loinc.org",
                        "code": "8480-6",
                        "display": "Systolic Blood Pressure"
                      }
                    ],
                    "text": "Systolic Blood Pressure"
                  },
                  "valueQuantity": {
                    "value": 130,
                    "unit": "mm[Hg]",
                    "system": "http://unitsofmeasure.org",
                    "code": "mm[Hg]"
                  }
                }
              ]
            },
            "request": {
              "method": "PUT",
              "url": "request-url"
            }
          },
          {
            "resource": {
              "resourceType": "Observation",
              "id": "observation-M-BPControlledVarLow-5",
              "status": "final",
              "note": [
                {
                  "text": "Home Blood Pressure Reading"
                }
              ],
              "extension": [
                {
                  "url": "http://hl7.org/fhir/us/vitals/StructureDefinition/MeasurementSettingExt",
                  "valueCoding": {
                    "system": "http://snomed.info/sct",
                    "code": "264362003"
                  }
                }
              ],
              "category": [
                {
                  "coding": [
                    {
                      "system": "http://terminology.hl7.org/CodeSystem/observation-category",
                      "code": "vital-signs",
                      "display": "vital-signs"
                    }
                  ]
                }
              ],
              "code": {
                "coding": [
                  {
                    "system": "http://loinc.org",
                    "code": "55284-4",
                    "display": "Blood Pressure"
                  }
                ],
                "text": "Blood Pressure"
              },
              "subject": {
                "reference": "Patient/M-BPControlledVarLow"
              },
              "encounter": {
                "reference": "Encounter/encounter-M-BPControlledVarLow-1"
              },
              "effectiveDateTime": "2023-02-01T15:16:21-05:00",
              "component": [
                {
                  "code": {
                    "coding": [
                      {
                        "system": "http://loinc.org",
                        "code": "8462-4",
                        "display": "Diastolic Blood Pressure"
                      }
                    ],
                    "text": "Diastolic Blood Pressure"
                  },
                  "valueQuantity": {
                    "value": 86,
                    "unit": "mm[Hg]",
                    "system": "http://unitsofmeasure.org",
                    "code": "mm[Hg]"
                  }
                },
                {
                  "code": {
                    "coding": [
                      {
                        "system": "http://loinc.org",
                        "code": "8480-6",
                        "display": "Systolic Blood Pressure"
                      }
                    ],
                    "text": "Systolic Blood Pressure"
                  },
                  "valueQuantity": {
                    "value": 141,
                    "unit": "mm[Hg]",
                    "system": "http://unitsofmeasure.org",
                    "code": "mm[Hg]"
                  }
                }
              ]
            },
            "request": {
              "method": "PUT",
              "url": "request-url"
            }
          },
          {
            "resource": {
              "resourceType": "Observation",
              "id": "observation-M-BPControlledVarLow-9",
              "status": "final",
              "note": [
                {
                  "text": "Home Blood Pressure Reading"
                }
              ],
              "extension": [
                {
                  "url": "http://hl7.org/fhir/us/vitals/StructureDefinition/MeasurementSettingExt",
                  "valueCoding": {
                    "system": "http://snomed.info/sct",
                    "code": "264362003"
                  }
                }
              ],
              "category": [
                {
                  "coding": [
                    {
                      "system": "http://terminology.hl7.org/CodeSystem/observation-category",
                      "code": "vital-signs",
                      "display": "vital-signs"
                    }
                  ]
                }
              ],
              "code": {
                "coding": [
                  {
                    "system": "http://loinc.org",
                    "code": "55284-4",
                    "display": "Blood Pressure"
                  }
                ],
                "text": "Blood Pressure"
              },
              "subject": {
                "reference": "Patient/M-BPControlledVarLow"
              },
              "encounter": {
                "reference": "Encounter/encounter-M-BPControlledVarLow-1"
              },
              "effectiveDateTime": "2023-02-13T15:16:21-05:00",
              "component": [
                {
                  "code": {
                    "coding": [
                      {
                        "system": "http://loinc.org",
                        "code": "8462-4",
                        "display": "Diastolic Blood Pressure"
                      }
                    ],
                    "text": "Diastolic Blood Pressure"
                  },
                  "valueQuantity": {
                    "value": 75,
                    "unit": "mm[Hg]",
                    "system": "http://unitsofmeasure.org",
                    "code": "mm[Hg]"
                  }
                },
                {
                  "code": {
                    "coding": [
                      {
                        "system": "http://loinc.org",
                        "code": "8480-6",
                        "display": "Systolic Blood Pressure"
                      }
                    ],
                    "text": "Systolic Blood Pressure"
                  },
                  "valueQuantity": {
                    "value": 120,
                    "unit": "mm[Hg]",
                    "system": "http://unitsofmeasure.org",
                    "code": "mm[Hg]"
                  }
                }
              ]
            },
            "request": {
              "method": "PUT",
              "url": "request-url"
            }
          },
          {
            "resource": {
              "resourceType": "Observation",
              "id": "observation-M-BPControlledVarLow-26",
              "status": "final",
              "note": [
                {
                  "text": "Home Blood Pressure Reading"
                }
              ],
              "extension": [
                {
                  "url": "http://hl7.org/fhir/us/vitals/StructureDefinition/MeasurementSettingExt",
                  "valueCoding": {
                    "system": "http://snomed.info/sct",
                    "code": "264362003"
                  }
                }
              ],
              "category": [
                {
                  "coding": [
                    {
                      "system": "http://terminology.hl7.org/CodeSystem/observation-category",
                      "code": "vital-signs",
                      "display": "vital-signs"
                    }
                  ]
                }
              ],
              "code": {
                "coding": [
                  {
                    "system": "http://loinc.org",
                    "code": "55284-4",
                    "display": "Blood Pressure"
                  }
                ],
                "text": "Blood Pressure"
              },
              "subject": {
                "reference": "Patient/M-BPControlledVarLow"
              },
              "encounter": {
                "reference": "Encounter/encounter-M-BPControlledVarLow-1"
              },
              "effectiveDateTime": "2023-04-04T15:16:21-05:00",
              "component": [
                {
                  "code": {
                    "coding": [
                      {
                        "system": "http://loinc.org",
                        "code": "8462-4",
                        "display": "Diastolic Blood Pressure"
                      }
                    ],
                    "text": "Diastolic Blood Pressure"
                  },
                  "valueQuantity": {
                    "value": 71,
                    "unit": "mm[Hg]",
                    "system": "http://unitsofmeasure.org",
                    "code": "mm[Hg]"
                  }
                },
                {
                  "code": {
                    "coding": [
                      {
                        "system": "http://loinc.org",
                        "code": "8480-6",
                        "display": "Systolic Blood Pressure"
                      }
                    ],
                    "text": "Systolic Blood Pressure"
                  },
                  "valueQuantity": {
                    "value": 111,
                    "unit": "mm[Hg]",
                    "system": "http://unitsofmeasure.org",
                    "code": "mm[Hg]"
                  }
                }
              ]
            },
            "request": {
              "method": "PUT",
              "url": "request-url"
            }
          },
          {
            "resource": {
              "resourceType": "Observation",
              "id": "observation-M-BPControlledVarLow-30",
              "status": "final",
              "note": [
                {
                  "text": "Home Blood Pressure Reading"
                }
              ],
              "extension": [
                {
                  "url": "http://hl7.org/fhir/us/vitals/StructureDefinition/MeasurementSettingExt",
                  "valueCoding": {
                    "system": "http://snomed.info/sct",
                    "code": "264362003"
                  }
                }
              ],
              "category": [
                {
                  "coding": [
                    {
                      "system": "http://terminology.hl7.org/CodeSystem/observation-category",
                      "code": "vital-signs",
                      "display": "vital-signs"
                    }
                  ]
                }
              ],
              "code": {
                "coding": [
                  {
                    "system": "http://loinc.org",
                    "code": "55284-4",
                    "display": "Blood Pressure"
                  }
                ],
                "text": "Blood Pressure"
              },
              "subject": {
                "reference": "Patient/M-BPControlledVarLow"
              },
              "encounter": {
                "reference": "Encounter/encounter-M-BPControlledVarLow-1"
              },
              "effectiveDateTime": "2023-04-16T15:16:21-05:00",
              "component": [
                {
                  "code": {
                    "coding": [
                      {
                        "system": "http://loinc.org",
                        "code": "8462-4",
                        "display": "Diastolic Blood Pressure"
                      }
                    ],
                    "text": "Diastolic Blood Pressure"
                  },
                  "valueQuantity": {
                    "value": 80,
                    "unit": "mm[Hg]",
                    "system": "http://unitsofmeasure.org",
                    "code": "mm[Hg]"
                  }
                },
                {
                  "code": {
                    "coding": [
                      {
                        "system": "http://loinc.org",
                        "code": "8480-6",
                        "display": "Systolic Blood Pressure"
                      }
                    ],
                    "text": "Systolic Blood Pressure"
                  },
                  "valueQuantity": {
                    "value": 130,
                    "unit": "mm[Hg]",
                    "system": "http://unitsofmeasure.org",
                    "code": "mm[Hg]"
                  }
                }
              ]
            },
            "request": {
              "method": "PUT",
              "url": "request-url"
            }
          },
          {
            "resource": {
              "resourceType": "Observation",
              "id": "observation-M-BPControlledVarLow-27",
              "status": "final",
              "note": [
                {
                  "text": "Home Blood Pressure Reading"
                }
              ],
              "extension": [
                {
                  "url": "http://hl7.org/fhir/us/vitals/StructureDefinition/MeasurementSettingExt",
                  "valueCoding": {
                    "system": "http://snomed.info/sct",
                    "code": "264362003"
                  }
                }
              ],
              "category": [
                {
                  "coding": [
                    {
                      "system": "http://terminology.hl7.org/CodeSystem/observation-category",
                      "code": "vital-signs",
                      "display": "vital-signs"
                    }
                  ]
                }
              ],
              "code": {
                "coding": [
                  {
                    "system": "http://loinc.org",
                    "code": "55284-4",
                    "display": "Blood Pressure"
                  }
                ],
                "text": "Blood Pressure"
              },
              "subject": {
                "reference": "Patient/M-BPControlledVarLow"
              },
              "encounter": {
                "reference": "Encounter/encounter-M-BPControlledVarLow-1"
              },
              "effectiveDateTime": "2023-04-07T15:16:21-05:00",
              "component": [
                {
                  "code": {
                    "coding": [
                      {
                        "system": "http://loinc.org",
                        "code": "8462-4",
                        "display": "Diastolic Blood Pressure"
                      }
                    ],
                    "text": "Diastolic Blood Pressure"
                  },
                  "valueQuantity": {
                    "value": 91,
                    "unit": "mm[Hg]",
                    "system": "http://unitsofmeasure.org",
                    "code": "mm[Hg]"
                  }
                },
                {
                  "code": {
                    "coding": [
                      {
                        "system": "http://loinc.org",
                        "code": "8480-6",
                        "display": "Systolic Blood Pressure"
                      }
                    ],
                    "text": "Systolic Blood Pressure"
                  },
                  "valueQuantity": {
                    "value": 151,
                    "unit": "mm[Hg]",
                    "system": "http://unitsofmeasure.org",
                    "code": "mm[Hg]"
                  }
                }
              ]
            },
            "request": {
              "method": "PUT",
              "url": "request-url"
            }
          },
          {
            "resource": {
              "resourceType": "Observation",
              "id": "observation-M-BPControlledVarLow-8",
              "status": "final",
              "note": [
                {
                  "text": "Home Blood Pressure Reading"
                }
              ],
              "extension": [
                {
                  "url": "http://hl7.org/fhir/us/vitals/StructureDefinition/MeasurementSettingExt",
                  "valueCoding": {
                    "system": "http://snomed.info/sct",
                    "code": "264362003"
                  }
                }
              ],
              "category": [
                {
                  "coding": [
                    {
                      "system": "http://terminology.hl7.org/CodeSystem/observation-category",
                      "code": "vital-signs",
                      "display": "vital-signs"
                    }
                  ]
                }
              ],
              "code": {
                "coding": [
                  {
                    "system": "http://loinc.org",
                    "code": "55284-4",
                    "display": "Blood Pressure"
                  }
                ],
                "text": "Blood Pressure"
              },
              "subject": {
                "reference": "Patient/M-BPControlledVarLow"
              },
              "encounter": {
                "reference": "Encounter/encounter-M-BPControlledVarLow-1"
              },
              "effectiveDateTime": "2023-02-10T15:16:21-05:00",
              "component": [
                {
                  "code": {
                    "coding": [
                      {
                        "system": "http://loinc.org",
                        "code": "8462-4",
                        "display": "Diastolic Blood Pressure"
                      }
                    ],
                    "text": "Diastolic Blood Pressure"
                  },
                  "valueQuantity": {
                    "value": 86,
                    "unit": "mm[Hg]",
                    "system": "http://unitsofmeasure.org",
                    "code": "mm[Hg]"
                  }
                },
                {
                  "code": {
                    "coding": [
                      {
                        "system": "http://loinc.org",
                        "code": "8480-6",
                        "display": "Systolic Blood Pressure"
                      }
                    ],
                    "text": "Systolic Blood Pressure"
                  },
                  "valueQuantity": {
                    "value": 142,
                    "unit": "mm[Hg]",
                    "system": "http://unitsofmeasure.org",
                    "code": "mm[Hg]"
                  }
                }
              ]
            },
            "request": {
              "method": "PUT",
              "url": "request-url"
            }
          },
          {
            "resource": {
              "resourceType": "Observation",
              "id": "observation-M-BPControlledVarLow-4",
              "status": "final",
              "note": [
                {
                  "text": "Home Blood Pressure Reading"
                }
              ],
              "extension": [
                {
                  "url": "http://hl7.org/fhir/us/vitals/StructureDefinition/MeasurementSettingExt",
                  "valueCoding": {
                    "system": "http://snomed.info/sct",
                    "code": "264362003"
                  }
                }
              ],
              "category": [
                {
                  "coding": [
                    {
                      "system": "http://terminology.hl7.org/CodeSystem/observation-category",
                      "code": "vital-signs",
                      "display": "vital-signs"
                    }
                  ]
                }
              ],
              "code": {
                "coding": [
                  {
                    "system": "http://loinc.org",
                    "code": "55284-4",
                    "display": "Blood Pressure"
                  }
                ],
                "text": "Blood Pressure"
              },
              "subject": {
                "reference": "Patient/M-BPControlledVarLow"
              },
              "encounter": {
                "reference": "Encounter/encounter-M-BPControlledVarLow-1"
              },
              "effectiveDateTime": "2023-01-29T15:16:21-05:00",
              "component": [
                {
                  "code": {
                    "coding": [
                      {
                        "system": "http://loinc.org",
                        "code": "8462-4",
                        "display": "Diastolic Blood Pressure"
                      }
                    ],
                    "text": "Diastolic Blood Pressure"
                  },
                  "valueQuantity": {
                    "value": 69,
                    "unit": "mm[Hg]",
                    "system": "http://unitsofmeasure.org",
                    "code": "mm[Hg]"
                  }
                },
                {
                  "code": {
                    "coding": [
                      {
                        "system": "http://loinc.org",
                        "code": "8480-6",
                        "display": "Systolic Blood Pressure"
                      }
                    ],
                    "text": "Systolic Blood Pressure"
                  },
                  "valueQuantity": {
                    "value": 107,
                    "unit": "mm[Hg]",
                    "system": "http://unitsofmeasure.org",
                    "code": "mm[Hg]"
                  }
                }
              ]
            },
            "request": {
              "method": "PUT",
              "url": "request-url"
            }
          },
          {
            "resource": {
              "resourceType": "Observation",
              "id": "observation-M-BPControlledVarLow-11",
              "status": "final",
              "note": [
                {
                  "text": "Home Blood Pressure Reading"
                }
              ],
              "extension": [
                {
                  "url": "http://hl7.org/fhir/us/vitals/StructureDefinition/MeasurementSettingExt",
                  "valueCoding": {
                    "system": "http://snomed.info/sct",
                    "code": "264362003"
                  }
                }
              ],
              "category": [
                {
                  "coding": [
                    {
                      "system": "http://terminology.hl7.org/CodeSystem/observation-category",
                      "code": "vital-signs",
                      "display": "vital-signs"
                    }
                  ]
                }
              ],
              "code": {
                "coding": [
                  {
                    "system": "http://loinc.org",
                    "code": "55284-4",
                    "display": "Blood Pressure"
                  }
                ],
                "text": "Blood Pressure"
              },
              "subject": {
                "reference": "Patient/M-BPControlledVarLow"
              },
              "encounter": {
                "reference": "Encounter/encounter-M-BPControlledVarLow-1"
              },
              "effectiveDateTime": "2023-02-20T15:16:21-05:00",
              "component": [
                {
                  "code": {
                    "coding": [
                      {
                        "system": "http://loinc.org",
                        "code": "8462-4",
                        "display": "Diastolic Blood Pressure"
                      }
                    ],
                    "text": "Diastolic Blood Pressure"
                  },
                  "valueQuantity": {
                    "value": 80,
                    "unit": "mm[Hg]",
                    "system": "http://unitsofmeasure.org",
                    "code": "mm[Hg]"
                  }
                },
                {
                  "code": {
                    "coding": [
                      {
                        "system": "http://loinc.org",
                        "code": "8480-6",
                        "display": "Systolic Blood Pressure"
                      }
                    ],
                    "text": "Systolic Blood Pressure"
                  },
                  "valueQuantity": {
                    "value": 130,
                    "unit": "mm[Hg]",
                    "system": "http://unitsofmeasure.org",
                    "code": "mm[Hg]"
                  }
                }
              ]
            },
            "request": {
              "method": "PUT",
              "url": "request-url"
            }
          },
          {
            "resource": {
              "resourceType": "Observation",
              "id": "observation-M-BPControlledVarLow-7",
              "status": "final",
              "note": [
                {
                  "text": "Home Blood Pressure Reading"
                }
              ],
              "extension": [
                {
                  "url": "http://hl7.org/fhir/us/vitals/StructureDefinition/MeasurementSettingExt",
                  "valueCoding": {
                    "system": "http://snomed.info/sct",
                    "code": "264362003"
                  }
                }
              ],
              "category": [
                {
                  "coding": [
                    {
                      "system": "http://terminology.hl7.org/CodeSystem/observation-category",
                      "code": "vital-signs",
                      "display": "vital-signs"
                    }
                  ]
                }
              ],
              "code": {
                "coding": [
                  {
                    "system": "http://loinc.org",
                    "code": "55284-4",
                    "display": "Blood Pressure"
                  }
                ],
                "text": "Blood Pressure"
              },
              "subject": {
                "reference": "Patient/M-BPControlledVarLow"
              },
              "encounter": {
                "reference": "Encounter/encounter-M-BPControlledVarLow-1"
              },
              "effectiveDateTime": "2023-02-07T15:16:21-05:00",
              "component": [
                {
                  "code": {
                    "coding": [
                      {
                        "system": "http://loinc.org",
                        "code": "8462-4",
                        "display": "Diastolic Blood Pressure"
                      }
                    ],
                    "text": "Diastolic Blood Pressure"
                  },
                  "valueQuantity": {
                    "value": 91,
                    "unit": "mm[Hg]",
                    "system": "http://unitsofmeasure.org",
                    "code": "mm[Hg]"
                  }
                },
                {
                  "code": {
                    "coding": [
                      {
                        "system": "http://loinc.org",
                        "code": "8480-6",
                        "display": "Systolic Blood Pressure"
                      }
                    ],
                    "text": "Systolic Blood Pressure"
                  },
                  "valueQuantity": {
                    "value": 151,
                    "unit": "mm[Hg]",
                    "system": "http://unitsofmeasure.org",
                    "code": "mm[Hg]"
                  }
                }
              ]
            },
            "request": {
              "method": "PUT",
              "url": "request-url"
            }
          },
          {
            "resource": {
              "resourceType": "Observation",
              "id": "observation-M-BPControlledVarLow-28",
              "status": "final",
              "note": [
                {
                  "text": "Home Blood Pressure Reading"
                }
              ],
              "extension": [
                {
                  "url": "http://hl7.org/fhir/us/vitals/StructureDefinition/MeasurementSettingExt",
                  "valueCoding": {
                    "system": "http://snomed.info/sct",
                    "code": "264362003"
                  }
                }
              ],
              "category": [
                {
                  "coding": [
                    {
                      "system": "http://terminology.hl7.org/CodeSystem/observation-category",
                      "code": "vital-signs",
                      "display": "vital-signs"
                    }
                  ]
                }
              ],
              "code": {
                "coding": [
                  {
                    "system": "http://loinc.org",
                    "code": "55284-4",
                    "display": "Blood Pressure"
                  }
                ],
                "text": "Blood Pressure"
              },
              "subject": {
                "reference": "Patient/M-BPControlledVarLow"
              },
              "encounter": {
                "reference": "Encounter/encounter-M-BPControlledVarLow-1"
              },
              "effectiveDateTime": "2023-04-10T15:16:21-05:00",
              "component": [
                {
                  "code": {
                    "coding": [
                      {
                        "system": "http://loinc.org",
                        "code": "8462-4",
                        "display": "Diastolic Blood Pressure"
                      }
                    ],
                    "text": "Diastolic Blood Pressure"
                  },
                  "valueQuantity": {
                    "value": 86,
                    "unit": "mm[Hg]",
                    "system": "http://unitsofmeasure.org",
                    "code": "mm[Hg]"
                  }
                },
                {
                  "code": {
                    "coding": [
                      {
                        "system": "http://loinc.org",
                        "code": "8480-6",
                        "display": "Systolic Blood Pressure"
                      }
                    ],
                    "text": "Systolic Blood Pressure"
                  },
                  "valueQuantity": {
                    "value": 142,
                    "unit": "mm[Hg]",
                    "system": "http://unitsofmeasure.org",
                    "code": "mm[Hg]"
                  }
                }
              ]
            },
            "request": {
              "method": "PUT",
              "url": "request-url"
            }
          },
          {
            "resource": {
              "resourceType": "Observation",
              "id": "observation-M-BPControlledVarLow-12",
              "status": "final",
              "note": [
                {
                  "text": "Home Blood Pressure Reading"
                }
              ],
              "extension": [
                {
                  "url": "http://hl7.org/fhir/us/vitals/StructureDefinition/MeasurementSettingExt",
                  "valueCoding": {
                    "system": "http://snomed.info/sct",
                    "code": "264362003"
                  }
                }
              ],
              "category": [
                {
                  "coding": [
                    {
                      "system": "http://terminology.hl7.org/CodeSystem/observation-category",
                      "code": "vital-signs",
                      "display": "vital-signs"
                    }
                  ]
                }
              ],
              "code": {
                "coding": [
                  {
                    "system": "http://loinc.org",
                    "code": "55284-4",
                    "display": "Blood Pressure"
                  }
                ],
                "text": "Blood Pressure"
              },
              "subject": {
                "reference": "Patient/M-BPControlledVarLow"
              },
              "encounter": {
                "reference": "Encounter/encounter-M-BPControlledVarLow-1"
              },
              "effectiveDateTime": "2023-02-22T15:16:21-05:00",
              "component": [
                {
                  "code": {
                    "coding": [
                      {
                        "system": "http://loinc.org",
                        "code": "8462-4",
                        "display": "Diastolic Blood Pressure"
                      }
                    ],
                    "text": "Diastolic Blood Pressure"
                  },
                  "valueQuantity": {
                    "value": 90,
                    "unit": "mm[Hg]",
                    "system": "http://unitsofmeasure.org",
                    "code": "mm[Hg]"
                  }
                },
                {
                  "code": {
                    "coding": [
                      {
                        "system": "http://loinc.org",
                        "code": "8480-6",
                        "display": "Systolic Blood Pressure"
                      }
                    ],
                    "text": "Systolic Blood Pressure"
                  },
                  "valueQuantity": {
                    "value": 150,
                    "unit": "mm[Hg]",
                    "system": "http://unitsofmeasure.org",
                    "code": "mm[Hg]"
                  }
                }
              ]
            },
            "request": {
              "method": "PUT",
              "url": "request-url"
            }
          },
          {
            "resource": {
              "resourceType": "Observation",
              "id": "observation-M-BPControlledVarLow-24",
              "status": "final",
              "note": [
                {
                  "text": "Home Blood Pressure Reading"
                }
              ],
              "extension": [
                {
                  "url": "http://hl7.org/fhir/us/vitals/StructureDefinition/MeasurementSettingExt",
                  "valueCoding": {
                    "system": "http://snomed.info/sct",
                    "code": "264362003"
                  }
                }
              ],
              "category": [
                {
                  "coding": [
                    {
                      "system": "http://terminology.hl7.org/CodeSystem/observation-category",
                      "code": "vital-signs",
                      "display": "vital-signs"
                    }
                  ]
                }
              ],
              "code": {
                "coding": [
                  {
                    "system": "http://loinc.org",
                    "code": "55284-4",
                    "display": "Blood Pressure"
                  }
                ],
                "text": "Blood Pressure"
              },
              "subject": {
                "reference": "Patient/M-BPControlledVarLow"
              },
              "encounter": {
                "reference": "Encounter/encounter-M-BPControlledVarLow-1"
              },
              "effectiveDateTime": "2023-03-29T15:16:21-05:00",
              "component": [
                {
                  "code": {
                    "coding": [
                      {
                        "system": "http://loinc.org",
                        "code": "8462-4",
                        "display": "Diastolic Blood Pressure"
                      }
                    ],
                    "text": "Diastolic Blood Pressure"
                  },
                  "valueQuantity": {
                    "value": 69,
                    "unit": "mm[Hg]",
                    "system": "http://unitsofmeasure.org",
                    "code": "mm[Hg]"
                  }
                },
                {
                  "code": {
                    "coding": [
                      {
                        "system": "http://loinc.org",
                        "code": "8480-6",
                        "display": "Systolic Blood Pressure"
                      }
                    ],
                    "text": "Systolic Blood Pressure"
                  },
                  "valueQuantity": {
                    "value": 107,
                    "unit": "mm[Hg]",
                    "system": "http://unitsofmeasure.org",
                    "code": "mm[Hg]"
                  }
                }
              ]
            },
            "request": {
              "method": "PUT",
              "url": "request-url"
            }
          },
          {
            "resource": {
              "resourceType": "Observation",
              "id": "observation-M-BPControlledVarLow-25",
              "status": "final",
              "note": [
                {
                  "text": "Home Blood Pressure Reading"
                }
              ],
              "extension": [
                {
                  "url": "http://hl7.org/fhir/us/vitals/StructureDefinition/MeasurementSettingExt",
                  "valueCoding": {
                    "system": "http://snomed.info/sct",
                    "code": "264362003"
                  }
                }
              ],
              "category": [
                {
                  "coding": [
                    {
                      "system": "http://terminology.hl7.org/CodeSystem/observation-category",
                      "code": "vital-signs",
                      "display": "vital-signs"
                    }
                  ]
                }
              ],
              "code": {
                "coding": [
                  {
                    "system": "http://loinc.org",
                    "code": "55284-4",
                    "display": "Blood Pressure"
                  }
                ],
                "text": "Blood Pressure"
              },
              "subject": {
                "reference": "Patient/M-BPControlledVarLow"
              },
              "encounter": {
                "reference": "Encounter/encounter-M-BPControlledVarLow-1"
              },
              "effectiveDateTime": "2023-04-01T15:16:21-05:00",
              "component": [
                {
                  "code": {
                    "coding": [
                      {
                        "system": "http://loinc.org",
                        "code": "8462-4",
                        "display": "Diastolic Blood Pressure"
                      }
                    ],
                    "text": "Diastolic Blood Pressure"
                  },
                  "valueQuantity": {
                    "value": 86,
                    "unit": "mm[Hg]",
                    "system": "http://unitsofmeasure.org",
                    "code": "mm[Hg]"
                  }
                },
                {
                  "code": {
                    "coding": [
                      {
                        "system": "http://loinc.org",
                        "code": "8480-6",
                        "display": "Systolic Blood Pressure"
                      }
                    ],
                    "text": "Systolic Blood Pressure"
                  },
                  "valueQuantity": {
                    "value": 141,
                    "unit": "mm[Hg]",
                    "system": "http://unitsofmeasure.org",
                    "code": "mm[Hg]"
                  }
                }
              ]
            },
            "request": {
              "method": "PUT",
              "url": "request-url"
            }
          },
          {
            "resource": {
              "resourceType": "Observation",
              "id": "observation-M-BPControlledVarLow-13",
              "status": "final",
              "note": [
                {
                  "text": "Home Blood Pressure Reading"
                }
              ],
              "extension": [
                {
                  "url": "http://hl7.org/fhir/us/vitals/StructureDefinition/MeasurementSettingExt",
                  "valueCoding": {
                    "system": "http://snomed.info/sct",
                    "code": "264362003"
                  }
                }
              ],
              "category": [
                {
                  "coding": [
                    {
                      "system": "http://terminology.hl7.org/CodeSystem/observation-category",
                      "code": "vital-signs",
                      "display": "vital-signs"
                    }
                  ]
                }
              ],
              "code": {
                "coding": [
                  {
                    "system": "http://loinc.org",
                    "code": "55284-4",
                    "display": "Blood Pressure"
                  }
                ],
                "text": "Blood Pressure"
              },
              "subject": {
                "reference": "Patient/M-BPControlledVarLow"
              },
              "encounter": {
                "reference": "Encounter/encounter-M-BPControlledVarLow-1"
              },
              "effectiveDateTime": "2023-02-25T15:16:21-05:00",
              "component": [
                {
                  "code": {
                    "coding": [
                      {
                        "system": "http://loinc.org",
                        "code": "8462-4",
                        "display": "Diastolic Blood Pressure"
                      }
                    ],
                    "text": "Diastolic Blood Pressure"
                  },
                  "valueQuantity": {
                    "value": 74,
                    "unit": "mm[Hg]",
                    "system": "http://unitsofmeasure.org",
                    "code": "mm[Hg]"
                  }
                },
                {
                  "code": {
                    "coding": [
                      {
                        "system": "http://loinc.org",
                        "code": "8480-6",
                        "display": "Systolic Blood Pressure"
                      }
                    ],
                    "text": "Systolic Blood Pressure"
                  },
                  "valueQuantity": {
                    "value": 118,
                    "unit": "mm[Hg]",
                    "system": "http://unitsofmeasure.org",
                    "code": "mm[Hg]"
                  }
                }
              ]
            },
            "request": {
              "method": "PUT",
              "url": "request-url"
            }
          },
          {
            "resource": {
              "resourceType": "Observation",
              "id": "observation-M-BPControlledVarLow-29",
              "status": "final",
              "note": [
                {
                  "text": "Home Blood Pressure Reading"
                }
              ],
              "extension": [
                {
                  "url": "http://hl7.org/fhir/us/vitals/StructureDefinition/MeasurementSettingExt",
                  "valueCoding": {
                    "system": "http://snomed.info/sct",
                    "code": "264362003"
                  }
                }
              ],
              "category": [
                {
                  "coding": [
                    {
                      "system": "http://terminology.hl7.org/CodeSystem/observation-category",
                      "code": "vital-signs",
                      "display": "vital-signs"
                    }
                  ]
                }
              ],
              "code": {
                "coding": [
                  {
                    "system": "http://loinc.org",
                    "code": "55284-4",
                    "display": "Blood Pressure"
                  }
                ],
                "text": "Blood Pressure"
              },
              "subject": {
                "reference": "Patient/M-BPControlledVarLow"
              },
              "encounter": {
                "reference": "Encounter/encounter-M-BPControlledVarLow-1"
              },
              "effectiveDateTime": "2023-04-13T15:16:21-05:00",
              "component": [
                {
                  "code": {
                    "coding": [
                      {
                        "system": "http://loinc.org",
                        "code": "8462-4",
                        "display": "Diastolic Blood Pressure"
                      }
                    ],
                    "text": "Diastolic Blood Pressure"
                  },
                  "valueQuantity": {
                    "value": 75,
                    "unit": "mm[Hg]",
                    "system": "http://unitsofmeasure.org",
                    "code": "mm[Hg]"
                  }
                },
                {
                  "code": {
                    "coding": [
                      {
                        "system": "http://loinc.org",
                        "code": "8480-6",
                        "display": "Systolic Blood Pressure"
                      }
                    ],
                    "text": "Systolic Blood Pressure"
                  },
                  "valueQuantity": {
                    "value": 129,
                    "unit": "mm[Hg]",
                    "system": "http://unitsofmeasure.org",
                    "code": "mm[Hg]"
                  }
                }
              ]
            },
            "request": {
              "method": "PUT",
              "url": "request-url"
            }
          },
          {
            "resource": {
              "resourceType": "Observation",
              "id": "observation-M-BPControlledVarLow-6",
              "status": "final",
              "note": [
                {
                  "text": "Home Blood Pressure Reading"
                }
              ],
              "extension": [
                {
                  "url": "http://hl7.org/fhir/us/vitals/StructureDefinition/MeasurementSettingExt",
                  "valueCoding": {
                    "system": "http://snomed.info/sct",
                    "code": "264362003"
                  }
                }
              ],
              "category": [
                {
                  "coding": [
                    {
                      "system": "http://terminology.hl7.org/CodeSystem/observation-category",
                      "code": "vital-signs",
                      "display": "vital-signs"
                    }
                  ]
                }
              ],
              "code": {
                "coding": [
                  {
                    "system": "http://loinc.org",
                    "code": "55284-4",
                    "display": "Blood Pressure"
                  }
                ],
                "text": "Blood Pressure"
              },
              "subject": {
                "reference": "Patient/M-BPControlledVarLow"
              },
              "encounter": {
                "reference": "Encounter/encounter-M-BPControlledVarLow-1"
              },
              "effectiveDateTime": "2023-02-04T15:16:21-05:00",
              "component": [
                {
                  "code": {
                    "coding": [
                      {
                        "system": "http://loinc.org",
                        "code": "8462-4",
                        "display": "Diastolic Blood Pressure"
                      }
                    ],
                    "text": "Diastolic Blood Pressure"
                  },
                  "valueQuantity": {
                    "value": 71,
                    "unit": "mm[Hg]",
                    "system": "http://unitsofmeasure.org",
                    "code": "mm[Hg]"
                  }
                },
                {
                  "code": {
                    "coding": [
                      {
                        "system": "http://loinc.org",
                        "code": "8480-6",
                        "display": "Systolic Blood Pressure"
                      }
                    ],
                    "text": "Systolic Blood Pressure"
                  },
                  "valueQuantity": {
                    "value": 111,
                    "unit": "mm[Hg]",
                    "system": "http://unitsofmeasure.org",
                    "code": "mm[Hg]"
                  }
                }
              ]
            },
            "request": {
              "method": "PUT",
              "url": "request-url"
            }
          },
          {
            "resource": {
              "resourceType": "Observation",
              "id": "observation-M-BPControlledVarLow-22",
              "status": "final",
              "note": [
                {
                  "text": "Home Blood Pressure Reading"
                }
              ],
              "extension": [
                {
                  "url": "http://hl7.org/fhir/us/vitals/StructureDefinition/MeasurementSettingExt",
                  "valueCoding": {
                    "system": "http://snomed.info/sct",
                    "code": "264362003"
                  }
                }
              ],
              "category": [
                {
                  "coding": [
                    {
                      "system": "http://terminology.hl7.org/CodeSystem/observation-category",
                      "code": "vital-signs",
                      "display": "vital-signs"
                    }
                  ]
                }
              ],
              "code": {
                "coding": [
                  {
                    "system": "http://loinc.org",
                    "code": "55284-4",
                    "display": "Blood Pressure"
                  }
                ],
                "text": "Blood Pressure"
              },
              "subject": {
                "reference": "Patient/M-BPControlledVarLow"
              },
              "encounter": {
                "reference": "Encounter/encounter-M-BPControlledVarLow-1"
              },
              "effectiveDateTime": "2023-03-23T15:16:21-05:00",
              "component": [
                {
                  "code": {
                    "coding": [
                      {
                        "system": "http://loinc.org",
                        "code": "8462-4",
                        "display": "Diastolic Blood Pressure"
                      }
                    ],
                    "text": "Diastolic Blood Pressure"
                  },
                  "valueQuantity": {
                    "value": 90,
                    "unit": "mm[Hg]",
                    "system": "http://unitsofmeasure.org",
                    "code": "mm[Hg]"
                  }
                },
                {
                  "code": {
                    "coding": [
                      {
                        "system": "http://loinc.org",
                        "code": "8480-6",
                        "display": "Systolic Blood Pressure"
                      }
                    ],
                    "text": "Systolic Blood Pressure"
                  },
                  "valueQuantity": {
                    "value": 150,
                    "unit": "mm[Hg]",
                    "system": "http://unitsofmeasure.org",
                    "code": "mm[Hg]"
                  }
                }
              ]
            },
            "request": {
              "method": "PUT",
              "url": "request-url"
            }
          },
          {
            "resource": {
              "resourceType": "Observation",
              "id": "observation-M-BPControlledVarLow-18",
              "status": "final",
              "note": [
                {
                  "text": "Home Blood Pressure Reading"
                }
              ],
              "extension": [
                {
                  "url": "http://hl7.org/fhir/us/vitals/StructureDefinition/MeasurementSettingExt",
                  "valueCoding": {
                    "system": "http://snomed.info/sct",
                    "code": "264362003"
                  }
                }
              ],
              "category": [
                {
                  "coding": [
                    {
                      "system": "http://terminology.hl7.org/CodeSystem/observation-category",
                      "code": "vital-signs",
                      "display": "vital-signs"
                    }
                  ]
                }
              ],
              "code": {
                "coding": [
                  {
                    "system": "http://loinc.org",
                    "code": "55284-4",
                    "display": "Blood Pressure"
                  }
                ],
                "text": "Blood Pressure"
              },
              "subject": {
                "reference": "Patient/M-BPControlledVarLow"
              },
              "encounter": {
                "reference": "Encounter/encounter-M-BPControlledVarLow-1"
              },
              "effectiveDateTime": "2023-03-12T15:16:21-05:00",
              "component": [
                {
                  "code": {
                    "coding": [
                      {
                        "system": "http://loinc.org",
                        "code": "8462-4",
                        "display": "Diastolic Blood Pressure"
                      }
                    ],
                    "text": "Diastolic Blood Pressure"
                  },
                  "valueQuantity": {
                    "value": 86,
                    "unit": "mm[Hg]",
                    "system": "http://unitsofmeasure.org",
                    "code": "mm[Hg]"
                  }
                },
                {
                  "code": {
                    "coding": [
                      {
                        "system": "http://loinc.org",
                        "code": "8480-6",
                        "display": "Systolic Blood Pressure"
                      }
                    ],
                    "text": "Systolic Blood Pressure"
                  },
                  "valueQuantity": {
                    "value": 142,
                    "unit": "mm[Hg]",
                    "system": "http://unitsofmeasure.org",
                    "code": "mm[Hg]"
                  }
                }
              ]
            },
            "request": {
              "method": "PUT",
              "url": "request-url"
            }
          },
          {
            "resource": {
              "resourceType": "Observation",
              "id": "observation-M-BPControlledVarLow-1",
              "status": "final",
              "note": [
                {
                  "text": "Home Blood Pressure Reading"
                }
              ],
              "extension": [
                {
                  "url": "http://hl7.org/fhir/us/vitals/StructureDefinition/MeasurementSettingExt",
                  "valueCoding": {
                    "system": "http://snomed.info/sct",
                    "code": "264362003"
                  }
                }
              ],
              "category": [
                {
                  "coding": [
                    {
                      "system": "http://terminology.hl7.org/CodeSystem/observation-category",
                      "code": "vital-signs",
                      "display": "vital-signs"
                    }
                  ]
                }
              ],
              "code": {
                "coding": [
                  {
                    "system": "http://loinc.org",
                    "code": "55284-4",
                    "display": "Blood Pressure"
                  }
                ],
                "text": "Blood Pressure"
              },
              "subject": {
                "reference": "Patient/M-BPControlledVarLow"
              },
              "encounter": {
                "reference": "Encounter/encounter-M-BPControlledVarLow-1"
              },
              "effectiveDateTime": "2023-01-20T15:16:21-05:00",
              "component": [
                {
                  "code": {
                    "coding": [
                      {
                        "system": "http://loinc.org",
                        "code": "8462-4",
                        "display": "Diastolic Blood Pressure"
                      }
                    ],
                    "text": "Diastolic Blood Pressure"
                  },
                  "valueQuantity": {
                    "value": 80.0,
                    "unit": "mm[Hg]",
                    "system": "http://unitsofmeasure.org",
                    "code": "mm[Hg]"
                  }
                },
                {
                  "code": {
                    "coding": [
                      {
                        "system": "http://loinc.org",
                        "code": "8480-6",
                        "display": "Systolic Blood Pressure"
                      }
                    ],
                    "text": "Systolic Blood Pressure"
                  },
                  "valueQuantity": {
                    "value": 130.0,
                    "unit": "mm[Hg]",
                    "system": "http://unitsofmeasure.org",
                    "code": "mm[Hg]"
                  }
                }
              ]
            },
            "request": {
              "method": "PUT",
              "url": "request-url"
            }
          },
          {
            "resource": {
              "resourceType": "Observation",
              "id": "observation-M-BPControlledVarLow-14",
              "status": "final",
              "note": [
                {
                  "text": "Home Blood Pressure Reading"
                }
              ],
              "extension": [
                {
                  "url": "http://hl7.org/fhir/us/vitals/StructureDefinition/MeasurementSettingExt",
                  "valueCoding": {
                    "system": "http://snomed.info/sct",
                    "code": "264362003"
                  }
                }
              ],
              "category": [
                {
                  "coding": [
                    {
                      "system": "http://terminology.hl7.org/CodeSystem/observation-category",
                      "code": "vital-signs",
                      "display": "vital-signs"
                    }
                  ]
                }
              ],
              "code": {
                "coding": [
                  {
                    "system": "http://loinc.org",
                    "code": "55284-4",
                    "display": "Blood Pressure"
                  }
                ],
                "text": "Blood Pressure"
              },
              "subject": {
                "reference": "Patient/M-BPControlledVarLow"
              },
              "encounter": {
                "reference": "Encounter/encounter-M-BPControlledVarLow-1"
              },
              "effectiveDateTime": "2023-02-28T15:16:21-05:00",
              "component": [
                {
                  "code": {
                    "coding": [
                      {
                        "system": "http://loinc.org",
                        "code": "8462-4",
                        "display": "Diastolic Blood Pressure"
                      }
                    ],
                    "text": "Diastolic Blood Pressure"
                  },
                  "valueQuantity": {
                    "value": 69,
                    "unit": "mm[Hg]",
                    "system": "http://unitsofmeasure.org",
                    "code": "mm[Hg]"
                  }
                },
                {
                  "code": {
                    "coding": [
                      {
                        "system": "http://loinc.org",
                        "code": "8480-6",
                        "display": "Systolic Blood Pressure"
                      }
                    ],
                    "text": "Systolic Blood Pressure"
                  },
                  "valueQuantity": {
                    "value": 107,
                    "unit": "mm[Hg]",
                    "system": "http://unitsofmeasure.org",
                    "code": "mm[Hg]"
                  }
                }
              ]
            },
            "request": {
              "method": "PUT",
              "url": "request-url"
            }
          },
          {
            "resource": {
              "resourceType": "Observation",
              "id": "observation-M-BPControlledVarLow-15",
              "status": "final",
              "note": [
                {
                  "text": "Home Blood Pressure Reading"
                }
              ],
              "extension": [
                {
                  "url": "http://hl7.org/fhir/us/vitals/StructureDefinition/MeasurementSettingExt",
                  "valueCoding": {
                    "system": "http://snomed.info/sct",
                    "code": "264362003"
                  }
                }
              ],
              "category": [
                {
                  "coding": [
                    {
                      "system": "http://terminology.hl7.org/CodeSystem/observation-category",
                      "code": "vital-signs",
                      "display": "vital-signs"
                    }
                  ]
                }
              ],
              "code": {
                "coding": [
                  {
                    "system": "http://loinc.org",
                    "code": "55284-4",
                    "display": "Blood Pressure"
                  }
                ],
                "text": "Blood Pressure"
              },
              "subject": {
                "reference": "Patient/M-BPControlledVarLow"
              },
              "encounter": {
                "reference": "Encounter/encounter-M-BPControlledVarLow-1"
              },
              "effectiveDateTime": "2023-03-03T15:16:21-05:00",
              "component": [
                {
                  "code": {
                    "coding": [
                      {
                        "system": "http://loinc.org",
                        "code": "8462-4",
                        "display": "Diastolic Blood Pressure"
                      }
                    ],
                    "text": "Diastolic Blood Pressure"
                  },
                  "valueQuantity": {
                    "value": 86,
                    "unit": "mm[Hg]",
                    "system": "http://unitsofmeasure.org",
                    "code": "mm[Hg]"
                  }
                },
                {
                  "code": {
                    "coding": [
                      {
                        "system": "http://loinc.org",
                        "code": "8480-6",
                        "display": "Systolic Blood Pressure"
                      }
                    ],
                    "text": "Systolic Blood Pressure"
                  },
                  "valueQuantity": {
                    "value": 141,
                    "unit": "mm[Hg]",
                    "system": "http://unitsofmeasure.org",
                    "code": "mm[Hg]"
                  }
                }
              ]
            },
            "request": {
              "method": "PUT",
              "url": "request-url"
            }
          },
          {
            "resource": {
              "resourceType": "Observation",
              "id": "observation-M-BPControlledVarLow-19",
              "status": "final",
              "note": [
                {
                  "text": "Home Blood Pressure Reading"
                }
              ],
              "extension": [
                {
                  "url": "http://hl7.org/fhir/us/vitals/StructureDefinition/MeasurementSettingExt",
                  "valueCoding": {
                    "system": "http://snomed.info/sct",
                    "code": "264362003"
                  }
                }
              ],
              "category": [
                {
                  "coding": [
                    {
                      "system": "http://terminology.hl7.org/CodeSystem/observation-category",
                      "code": "vital-signs",
                      "display": "vital-signs"
                    }
                  ]
                }
              ],
              "code": {
                "coding": [
                  {
                    "system": "http://loinc.org",
                    "code": "55284-4",
                    "display": "Blood Pressure"
                  }
                ],
                "text": "Blood Pressure"
              },
              "subject": {
                "reference": "Patient/M-BPControlledVarLow"
              },
              "encounter": {
                "reference": "Encounter/encounter-M-BPControlledVarLow-1"
              },
              "effectiveDateTime": "2023-03-15T15:16:21-05:00",
              "component": [
                {
                  "code": {
                    "coding": [
                      {
                        "system": "http://loinc.org",
                        "code": "8462-4",
                        "display": "Diastolic Blood Pressure"
                      }
                    ],
                    "text": "Diastolic Blood Pressure"
                  },
                  "valueQuantity": {
                    "value": 75,
                    "unit": "mm[Hg]",
                    "system": "http://unitsofmeasure.org",
                    "code": "mm[Hg]"
                  }
                },
                {
                  "code": {
                    "coding": [
                      {
                        "system": "http://loinc.org",
                        "code": "8480-6",
                        "display": "Systolic Blood Pressure"
                      }
                    ],
                    "text": "Systolic Blood Pressure"
                  },
                  "valueQuantity": {
                    "value": 120,
                    "unit": "mm[Hg]",
                    "system": "http://unitsofmeasure.org",
                    "code": "mm[Hg]"
                  }
                }
              ]
            },
            "request": {
              "method": "PUT",
              "url": "request-url"
            }
          },
          {
            "resource": {
              "resourceType": "Observation",
              "id": "observation-M-BPControlledVarLow-23",
              "status": "final",
              "note": [
                {
                  "text": "Home Blood Pressure Reading"
                }
              ],
              "extension": [
                {
                  "url": "http://hl7.org/fhir/us/vitals/StructureDefinition/MeasurementSettingExt",
                  "valueCoding": {
                    "system": "http://snomed.info/sct",
                    "code": "264362003"
                  }
                }
              ],
              "category": [
                {
                  "coding": [
                    {
                      "system": "http://terminology.hl7.org/CodeSystem/observation-category",
                      "code": "vital-signs",
                      "display": "vital-signs"
                    }
                  ]
                }
              ],
              "code": {
                "coding": [
                  {
                    "system": "http://loinc.org",
                    "code": "55284-4",
                    "display": "Blood Pressure"
                  }
                ],
                "text": "Blood Pressure"
              },
              "subject": {
                "reference": "Patient/M-BPControlledVarLow"
              },
              "encounter": {
                "reference": "Encounter/encounter-M-BPControlledVarLow-1"
              },
              "effectiveDateTime": "2023-03-26T15:16:21-05:00",
              "component": [
                {
                  "code": {
                    "coding": [
                      {
                        "system": "http://loinc.org",
                        "code": "8462-4",
                        "display": "Diastolic Blood Pressure"
                      }
                    ],
                    "text": "Diastolic Blood Pressure"
                  },
                  "valueQuantity": {
                    "value": 74,
                    "unit": "mm[Hg]",
                    "system": "http://unitsofmeasure.org",
                    "code": "mm[Hg]"
                  }
                },
                {
                  "code": {
                    "coding": [
                      {
                        "system": "http://loinc.org",
                        "code": "8480-6",
                        "display": "Systolic Blood Pressure"
                      }
                    ],
                    "text": "Systolic Blood Pressure"
                  },
                  "valueQuantity": {
                    "value": 118,
                    "unit": "mm[Hg]",
                    "system": "http://unitsofmeasure.org",
                    "code": "mm[Hg]"
                  }
                }
              ]
            },
            "request": {
              "method": "PUT",
              "url": "request-url"
            }
          },
          {
            "resource": {
              "resourceType": "Goal",
              "id": "goal-M-BPControlledVarLow-1",
              "lifecycleStatus": "active",
              "achievementStatus": {
                "coding": [
                  {
                    "system": "http://terminology.hl7.org/CodeSystem/goal-achievement",
                    "version": "4.0.1",
                    "code": "in-progress",
                    "display": "In Progress"
                  }
                ]
              },
              "statusDate": "2023-09-19",
              "description": {
                "text": "Goal of 135/85"
              },
              "subject": {
                "reference": "Patient/M-BPControlledVarLow"
              },
              "target": [
                {
                  "measure": {
                    "coding": [
                      {
                        "system": "http://loinc.org",
                        "version": "2.68",
                        "code": "8480-6",
                        "display": "Systolic blood pressure"
                      }
                    ]
                  },
                  "detailQuantity": {
                    "value": 135,
                    "unit": "mmHg",
                    "system": "http://unitsofmeasure.org",
                    "code": "mm[Hg]"
                  }
                },
                {
                  "measure": {
                    "coding": [
                      {
                        "system": "http://loinc.org",
                        "version": "2.68",
                        "code": "8462-4",
                        "display": "Diastolic blood pressure"
                      }
                    ]
                  },
                  "detailQuantity": {
                    "value": 85,
                    "unit": "mmHg",
                    "system": "http://unitsofmeasure.org",
                    "code": "mm[Hg]"
                  }
                }
              ]
            },
            "request": {
              "method": "PUT",
              "url": "request-url"
            }
          }
        ]
      }
    }
  }
}