{
  "hookInstance": "test",
  "fhirServer": "https://api.logicahealth.org/htnu18r42/open",
  "hook": "patient-view",
  "context": {
    "userId": "Practitioner/example",
    "patientId": "M-BPUncontrolledVarLow"
  },
  "prefetch": {
    "item1": {
      "response": {
        "status": "200 OK"
      },
      "resource": {
        "resourceType": "Bundle",
        "type": "transaction",
        "entry": [
          {
            "resource": {
              "resourceType": "Encounter",
              "id": "encounter-M-BPUncontrolledVarLow-4",
              "status": "finished",
              "class": {
                "system": "http://terminology.hl7.org/CodeSystem/v3-ActCode",
                "code": "AMB"
              },
              "type": [
                {
                  "coding": [
                    {
                      "system": "http://snomed.info/sct",
                      "code": "162673000",
                      "display": "General examination of patient (procedure)"
                    }
                  ],
                  "text": "General examination of patient (procedure)"
                }
              ],
              "subject": {
                "reference": "Patient/M-BPUncontrolledVarLow"
              },
              "period": {
                "start": "2023-01-16T00:00:00-04:00",
                "end": "2023-01-16T23:59:59-04:00"
              }
            },
            "request": {
              "method": "PUT",
              "url": "request-url"
            }
          },
          {
            "resource": {
              "resourceType": "Encounter",
              "id": "encounter-M-BPUncontrolledVarLow-3",
              "status": "finished",
              "class": {
                "system": "http://terminology.hl7.org/CodeSystem/v3-ActCode",
                "code": "AMB"
              },
              "type": [
                {
                  "coding": [
                    {
                      "system": "http://snomed.info/sct",
                      "code": "162673000",
                      "display": "General examination of patient (procedure)"
                    }
                  ],
                  "text": "General examination of patient (procedure)"
                }
              ],
              "subject": {
                "reference": "Patient/M-BPUncontrolledVarLow"
              },
              "period": {
                "start": "2022-12-16T00:00:00-04:00",
                "end": "2022-12-16T23:59:59-04:00"
              }
            },
            "request": {
              "method": "PUT",
              "url": "request-url"
            }
          },
          {
            "resource": {
              "resourceType": "Encounter",
              "id": "encounter-M-BPUncontrolledVarLow-2",
              "status": "finished",
              "class": {
                "system": "http://terminology.hl7.org/CodeSystem/v3-ActCode",
                "code": "AMB"
              },
              "type": [
                {
                  "coding": [
                    {
                      "system": "http://snomed.info/sct",
                      "code": "162673000",
                      "display": "General examination of patient (procedure)"
                    }
                  ],
                  "text": "General examination of patient (procedure)"
                }
              ],
              "subject": {
                "reference": "Patient/M-BPUncontrolledVarLow"
              },
              "period": {
                "start": "2022-11-18T00:00:00-04:00",
                "end": "2022-11-18T23:59:59-04:00"
              }
            },
            "request": {
              "method": "PUT",
              "url": "request-url"
            }
          },
          {
            "resource": {
              "resourceType": "Encounter",
              "id": "encounter-M-BPUncontrolledVarLow-1",
              "status": "finished",
              "class": {
                "system": "http://terminology.hl7.org/CodeSystem/v3-ActCode",
                "code": "AMB"
              },
              "type": [
                {
                  "coding": [
                    {
                      "system": "http://snomed.info/sct",
                      "code": "162673000",
                      "display": "General examination of patient (procedure)"
                    }
                  ],
                  "text": "General examination of patient (procedure)"
                }
              ],
              "subject": {
                "reference": "Patient/M-BPUncontrolledVarLow"
              },
              "period": {
                "start": "2022-10-18T00:00:00-04:00",
                "end": "2022-10-18T23:59:59-04:00"
              }
            },
            "request": {
              "method": "PUT",
              "url": "request-url"
            }
          },
          {
            "resource": {
              "resourceType": "Condition",
              "id": "condition-M-BPUncontrolledVarLow-1",
              "note": [
                {
                  "text": "Indicates Preexisting Diagnosis of Hypertension"
                }
              ],
              "category": [
                {
                  "coding": [
                    {
                      "system": "http://terminology.hl7.org/CodeSystem/condition-category",
                      "code": "problem-list-item",
                      "display": "Problem List Item"
                    }
                  ],
                  "text": "Problem List Item"
                }
              ],
              "clinicalStatus": {
                "coding": [
                  {
                    "system": "http://terminology.hl7.org/CodeSystem/condition-clinical",
                    "code": "active"
                  }
                ]
              },
              "verificationStatus": {
                "coding": [
                  {
                    "system": "http://terminology.hl7.org/CodeSystem/condition-ver-status",
                    "code": "confirmed"
                  }
                ]
              },
              "code": {
                "coding": [
                  {
                    "system": "http://snomed.info/sct",
                    "code": "59621000",
                    "display": "Hypertension"
                  }
                ],
                "text": "Hypertension"
              },
              "subject": {
                "reference": "Patient/M-BPUncontrolledVarLow"
              },
              "onsetDateTime": "2023-07-14",
              "recordedDate": "2016-10-19T15:16:21-05:00"
            },
            "request": {
              "method": "PUT",
              "url": "request-url"
            }
          },
          {
            "resource": {
              "resourceType": "Patient",
              "id": "M-BPUncontrolledVarLow",
              "active": true,
              "name": [
                {
                  "text": "BP Uncontrolled Var Low",
                  "family": "VarLow",
                  "given": [
                    "BP Uncontrolled"
                  ]
                }
              ],
              "gender": "male",
              "birthDate": "1961-07-07"
            },
            "request": {
              "method": "PUT",
              "url": "request-url"
            }
          },
          {
            "resource": {
              "resourceType": "Observation",
              "id": "observation-M-BPUncontrolledVarLow-16",
              "status": "final",
              "note": [
                {
                  "text": "Home Blood Pressure Reading"
                }
              ],
              "extension": [
                {
                  "url": "http://hl7.org/fhir/us/vitals/StructureDefinition/MeasurementSettingExt",
                  "valueCoding": {
                    "system": "http://snomed.info/sct",
                    "code": "264362003"
                  }
                }
              ],
              "category": [
                {
                  "coding": [
                    {
                      "system": "http://terminology.hl7.org/CodeSystem/observation-category",
                      "code": "vital-signs",
                      "display": "vital-signs"
                    }
                  ]
                }
              ],
              "code": {
                "coding": [
                  {
                    "system": "http://loinc.org",
                    "code": "55284-4",
                    "display": "Blood Pressure"
                  }
                ],
                "text": "Blood Pressure"
              },
              "subject": {
                "reference": "Patient/M-BPUncontrolledVarLow"
              },
              "encounter": {
                "reference": "Encounter/encounter-M-BPUncontrolledVarLow-1"
              },
              "effectiveDateTime": "2023-01-01T15:16:21-05:00",
              "component": [
                {
                  "code": {
                    "coding": [
                      {
                        "system": "http://loinc.org",
                        "code": "8462-4",
                        "display": "Diastolic Blood Pressure"
                      }
                    ],
                    "text": "Diastolic Blood Pressure"
                  },
                  "valueQuantity": {
                    "value": 84,
                    "unit": "mm[Hg]",
                    "system": "http://unitsofmeasure.org",
                    "code": "mm[Hg]"
                  }
                },
                {
                  "code": {
                    "coding": [
                      {
                        "system": "http://loinc.org",
                        "code": "8480-6",
                        "display": "Systolic Blood Pressure"
                      }
                    ],
                    "text": "Systolic Blood Pressure"
                  },
                  "valueQuantity": {
                    "value": 138,
                    "unit": "mm[Hg]",
                    "system": "http://unitsofmeasure.org",
                    "code": "mm[Hg]"
                  }
                }
              ]
            },
            "request": {
              "method": "PUT",
              "url": "request-url"
            }
          },
          {
            "resource": {
              "resourceType": "Observation",
              "id": "observation-M-BPUncontrolledVarLow-6",
              "status": "final",
              "note": [
                {
                  "text": "Home Blood Pressure Reading"
                }
              ],
              "extension": [
                {
                  "url": "http://hl7.org/fhir/us/vitals/StructureDefinition/MeasurementSettingExt",
                  "valueCoding": {
                    "system": "http://snomed.info/sct",
                    "code": "264362003"
                  }
                }
              ],
              "category": [
                {
                  "coding": [
                    {
                      "system": "http://terminology.hl7.org/CodeSystem/observation-category",
                      "code": "vital-signs",
                      "display": "vital-signs"
                    }
                  ]
                }
              ],
              "code": {
                "coding": [
                  {
                    "system": "http://loinc.org",
                    "code": "55284-4",
                    "display": "Blood Pressure"
                  }
                ],
                "text": "Blood Pressure"
              },
              "subject": {
                "reference": "Patient/M-BPUncontrolledVarLow"
              },
              "encounter": {
                "reference": "Encounter/encounter-M-BPUncontrolledVarLow-1"
              },
              "effectiveDateTime": "2022-12-02T15:16:21-05:00",
              "component": [
                {
                  "code": {
                    "coding": [
                      {
                        "system": "http://loinc.org",
                        "code": "8462-4",
                        "display": "Diastolic Blood Pressure"
                      }
                    ],
                    "text": "Diastolic Blood Pressure"
                  },
                  "valueQuantity": {
                    "value": 84,
                    "unit": "mm[Hg]",
                    "system": "http://unitsofmeasure.org",
                    "code": "mm[Hg]"
                  }
                },
                {
                  "code": {
                    "coding": [
                      {
                        "system": "http://loinc.org",
                        "code": "8480-6",
                        "display": "Systolic Blood Pressure"
                      }
                    ],
                    "text": "Systolic Blood Pressure"
                  },
                  "valueQuantity": {
                    "value": 138,
                    "unit": "mm[Hg]",
                    "system": "http://unitsofmeasure.org",
                    "code": "mm[Hg]"
                  }
                }
              ]
            },
            "request": {
              "method": "PUT",
              "url": "request-url"
            }
          },
          {
            "resource": {
              "resourceType": "Observation",
              "id": "observation-M-BPUncontrolledVarLow-20",
              "status": "final",
              "note": [
                {
                  "text": "Home Blood Pressure Reading"
                }
              ],
              "extension": [
                {
                  "url": "http://hl7.org/fhir/us/vitals/StructureDefinition/MeasurementSettingExt",
                  "valueCoding": {
                    "system": "http://snomed.info/sct",
                    "code": "264362003"
                  }
                }
              ],
              "category": [
                {
                  "coding": [
                    {
                      "system": "http://terminology.hl7.org/CodeSystem/observation-category",
                      "code": "vital-signs",
                      "display": "vital-signs"
                    }
                  ]
                }
              ],
              "code": {
                "coding": [
                  {
                    "system": "http://loinc.org",
                    "code": "55284-4",
                    "display": "Blood Pressure"
                  }
                ],
                "text": "Blood Pressure"
              },
              "subject": {
                "reference": "Patient/M-BPUncontrolledVarLow"
              },
              "encounter": {
                "reference": "Encounter/encounter-M-BPUncontrolledVarLow-1"
              },
              "effectiveDateTime": "2023-01-13T15:16:21-05:00",
              "component": [
                {
                  "code": {
                    "coding": [
                      {
                        "system": "http://loinc.org",
                        "code": "8462-4",
                        "display": "Diastolic Blood Pressure"
                      }
                    ],
                    "text": "Diastolic Blood Pressure"
                  },
                  "valueQuantity": {
                    "value": 88,
                    "unit": "mm[Hg]",
                    "system": "http://unitsofmeasure.org",
                    "code": "mm[Hg]"
                  }
                },
                {
                  "code": {
                    "coding": [
                      {
                        "system": "http://loinc.org",
                        "code": "8480-6",
                        "display": "Systolic Blood Pressure"
                      }
                    ],
                    "text": "Systolic Blood Pressure"
                  },
                  "valueQuantity": {
                    "value": 145,
                    "unit": "mm[Hg]",
                    "system": "http://unitsofmeasure.org",
                    "code": "mm[Hg]"
                  }
                }
              ]
            },
            "request": {
              "method": "PUT",
              "url": "request-url"
            }
          },
          {
            "resource": {
              "resourceType": "Observation",
              "id": "observation-M-BPUncontrolledVarLow-21",
              "status": "final",
              "note": [
                {
                  "text": "Home Blood Pressure Reading"
                }
              ],
              "extension": [
                {
                  "url": "http://hl7.org/fhir/us/vitals/StructureDefinition/MeasurementSettingExt",
                  "valueCoding": {
                    "system": "http://snomed.info/sct",
                    "code": "264362003"
                  }
                }
              ],
              "category": [
                {
                  "coding": [
                    {
                      "system": "http://terminology.hl7.org/CodeSystem/observation-category",
                      "code": "vital-signs",
                      "display": "vital-signs"
                    }
                  ]
                }
              ],
              "code": {
                "coding": [
                  {
                    "system": "http://loinc.org",
                    "code": "55284-4",
                    "display": "Blood Pressure"
                  }
                ],
                "text": "Blood Pressure"
              },
              "subject": {
                "reference": "Patient/M-BPUncontrolledVarLow"
              },
              "encounter": {
                "reference": "Encounter/encounter-M-BPUncontrolledVarLow-1"
              },
              "effectiveDateTime": "2023-01-15T15:16:21-05:00",
              "component": [
                {
                  "code": {
                    "coding": [
                      {
                        "system": "http://loinc.org",
                        "code": "8462-4",
                        "display": "Diastolic Blood Pressure"
                      }
                    ],
                    "text": "Diastolic Blood Pressure"
                  },
                  "valueQuantity": {
                    "value": 88,
                    "unit": "mm[Hg]",
                    "system": "http://unitsofmeasure.org",
                    "code": "mm[Hg]"
                  }
                },
                {
                  "code": {
                    "coding": [
                      {
                        "system": "http://loinc.org",
                        "code": "8480-6",
                        "display": "Systolic Blood Pressure"
                      }
                    ],
                    "text": "Systolic Blood Pressure"
                  },
                  "valueQuantity": {
                    "value": 145,
                    "unit": "mm[Hg]",
                    "system": "http://unitsofmeasure.org",
                    "code": "mm[Hg]"
                  }
                }
              ]
            },
            "request": {
              "method": "PUT",
              "url": "request-url"
            }
          },
          {
            "resource": {
              "resourceType": "Observation",
              "id": "observation-M-BPUncontrolledVarLow-7",
              "status": "final",
              "note": [
                {
                  "text": "Home Blood Pressure Reading"
                }
              ],
              "extension": [
                {
                  "url": "http://hl7.org/fhir/us/vitals/StructureDefinition/MeasurementSettingExt",
                  "valueCoding": {
                    "system": "http://snomed.info/sct",
                    "code": "264362003"
                  }
                }
              ],
              "category": [
                {
                  "coding": [
                    {
                      "system": "http://terminology.hl7.org/CodeSystem/observation-category",
                      "code": "vital-signs",
                      "display": "vital-signs"
                    }
                  ]
                }
              ],
              "code": {
                "coding": [
                  {
                    "system": "http://loinc.org",
                    "code": "55284-4",
                    "display": "Blood Pressure"
                  }
                ],
                "text": "Blood Pressure"
              },
              "subject": {
                "reference": "Patient/M-BPUncontrolledVarLow"
              },
              "encounter": {
                "reference": "Encounter/encounter-M-BPUncontrolledVarLow-1"
              },
              "effectiveDateTime": "2022-12-05T15:16:21-05:00",
              "component": [
                {
                  "code": {
                    "coding": [
                      {
                        "system": "http://loinc.org",
                        "code": "8462-4",
                        "display": "Diastolic Blood Pressure"
                      }
                    ],
                    "text": "Diastolic Blood Pressure"
                  },
                  "valueQuantity": {
                    "value": 94,
                    "unit": "mm[Hg]",
                    "system": "http://unitsofmeasure.org",
                    "code": "mm[Hg]"
                  }
                },
                {
                  "code": {
                    "coding": [
                      {
                        "system": "http://loinc.org",
                        "code": "8480-6",
                        "display": "Systolic Blood Pressure"
                      }
                    ],
                    "text": "Systolic Blood Pressure"
                  },
                  "valueQuantity": {
                    "value": 158,
                    "unit": "mm[Hg]",
                    "system": "http://unitsofmeasure.org",
                    "code": "mm[Hg]"
                  }
                }
              ]
            },
            "request": {
              "method": "PUT",
              "url": "request-url"
            }
          },
          {
            "resource": {
              "resourceType": "Observation",
              "id": "observation-M-BPUncontrolledVarLow-17",
              "status": "final",
              "note": [
                {
                  "text": "Home Blood Pressure Reading"
                }
              ],
              "extension": [
                {
                  "url": "http://hl7.org/fhir/us/vitals/StructureDefinition/MeasurementSettingExt",
                  "valueCoding": {
                    "system": "http://snomed.info/sct",
                    "code": "264362003"
                  }
                }
              ],
              "category": [
                {
                  "coding": [
                    {
                      "system": "http://terminology.hl7.org/CodeSystem/observation-category",
                      "code": "vital-signs",
                      "display": "vital-signs"
                    }
                  ]
                }
              ],
              "code": {
                "coding": [
                  {
                    "system": "http://loinc.org",
                    "code": "55284-4",
                    "display": "Blood Pressure"
                  }
                ],
                "text": "Blood Pressure"
              },
              "subject": {
                "reference": "Patient/M-BPUncontrolledVarLow"
              },
              "encounter": {
                "reference": "Encounter/encounter-M-BPUncontrolledVarLow-1"
              },
              "effectiveDateTime": "2023-01-04T15:16:21-05:00",
              "component": [
                {
                  "code": {
                    "coding": [
                      {
                        "system": "http://loinc.org",
                        "code": "8462-4",
                        "display": "Diastolic Blood Pressure"
                      }
                    ],
                    "text": "Diastolic Blood Pressure"
                  },
                  "valueQuantity": {
                    "value": 94,
                    "unit": "mm[Hg]",
                    "system": "http://unitsofmeasure.org",
                    "code": "mm[Hg]"
                  }
                },
                {
                  "code": {
                    "coding": [
                      {
                        "system": "http://loinc.org",
                        "code": "8480-6",
                        "display": "Systolic Blood Pressure"
                      }
                    ],
                    "text": "Systolic Blood Pressure"
                  },
                  "valueQuantity": {
                    "value": 158,
                    "unit": "mm[Hg]",
                    "system": "http://unitsofmeasure.org",
                    "code": "mm[Hg]"
                  }
                }
              ]
            },
            "request": {
              "method": "PUT",
              "url": "request-url"
            }
          },
          {
            "resource": {
              "resourceType": "Observation",
              "id": "observation-M-BPUncontrolledVarLow-26",
              "status": "final",
              "note": [
                {
                  "text": "Home Blood Pressure Reading"
                }
              ],
              "extension": [
                {
                  "url": "http://hl7.org/fhir/us/vitals/StructureDefinition/MeasurementSettingExt",
                  "valueCoding": {
                    "system": "http://snomed.info/sct",
                    "code": "264362003"
                  }
                }
              ],
              "category": [
                {
                  "coding": [
                    {
                      "system": "http://terminology.hl7.org/CodeSystem/observation-category",
                      "code": "vital-signs",
                      "display": "vital-signs"
                    }
                  ]
                }
              ],
              "code": {
                "coding": [
                  {
                    "system": "http://loinc.org",
                    "code": "55284-4",
                    "display": "Blood Pressure"
                  }
                ],
                "text": "Blood Pressure"
              },
              "subject": {
                "reference": "Patient/M-BPUncontrolledVarLow"
              },
              "encounter": {
                "reference": "Encounter/encounter-M-BPUncontrolledVarLow-1"
              },
              "effectiveDateTime": "2023-01-30T15:16:21-05:00",
              "component": [
                {
                  "code": {
                    "coding": [
                      {
                        "system": "http://loinc.org",
                        "code": "8462-4",
                        "display": "Diastolic Blood Pressure"
                      }
                    ],
                    "text": "Diastolic Blood Pressure"
                  },
                  "valueQuantity": {
                    "value": 84,
                    "unit": "mm[Hg]",
                    "system": "http://unitsofmeasure.org",
                    "code": "mm[Hg]"
                  }
                },
                {
                  "code": {
                    "coding": [
                      {
                        "system": "http://loinc.org",
                        "code": "8480-6",
                        "display": "Systolic Blood Pressure"
                      }
                    ],
                    "text": "Systolic Blood Pressure"
                  },
                  "valueQuantity": {
                    "value": 138,
                    "unit": "mm[Hg]",
                    "system": "http://unitsofmeasure.org",
                    "code": "mm[Hg]"
                  }
                }
              ]
            },
            "request": {
              "method": "PUT",
              "url": "request-url"
            }
          },
          {
            "resource": {
              "resourceType": "Observation",
              "id": "observation-M-BPUncontrolledVarLow-30",
              "status": "final",
              "note": [
                {
                  "text": "Home Blood Pressure Reading"
                }
              ],
              "extension": [
                {
                  "url": "http://hl7.org/fhir/us/vitals/StructureDefinition/MeasurementSettingExt",
                  "valueCoding": {
                    "system": "http://snomed.info/sct",
                    "code": "264362003"
                  }
                }
              ],
              "category": [
                {
                  "coding": [
                    {
                      "system": "http://terminology.hl7.org/CodeSystem/observation-category",
                      "code": "vital-signs",
                      "display": "vital-signs"
                    }
                  ]
                }
              ],
              "code": {
                "coding": [
                  {
                    "system": "http://loinc.org",
                    "code": "55284-4",
                    "display": "Blood Pressure"
                  }
                ],
                "text": "Blood Pressure"
              },
              "subject": {
                "reference": "Patient/M-BPUncontrolledVarLow"
              },
              "encounter": {
                "reference": "Encounter/encounter-M-BPUncontrolledVarLow-1"
              },
              "effectiveDateTime": "2023-02-11T15:16:21-05:00",
              "component": [
                {
                  "code": {
                    "coding": [
                      {
                        "system": "http://loinc.org",
                        "code": "8462-4",
                        "display": "Diastolic Blood Pressure"
                      }
                    ],
                    "text": "Diastolic Blood Pressure"
                  },
                  "valueQuantity": {
                    "value": 88,
                    "unit": "mm[Hg]",
                    "system": "http://unitsofmeasure.org",
                    "code": "mm[Hg]"
                  }
                },
                {
                  "code": {
                    "coding": [
                      {
                        "system": "http://loinc.org",
                        "code": "8480-6",
                        "display": "Systolic Blood Pressure"
                      }
                    ],
                    "text": "Systolic Blood Pressure"
                  },
                  "valueQuantity": {
                    "value": 145,
                    "unit": "mm[Hg]",
                    "system": "http://unitsofmeasure.org",
                    "code": "mm[Hg]"
                  }
                }
              ]
            },
            "request": {
              "method": "PUT",
              "url": "request-url"
            }
          },
          {
            "resource": {
              "resourceType": "Observation",
              "id": "observation-M-BPUncontrolledVarLow-10",
              "status": "final",
              "note": [
                {
                  "text": "Home Blood Pressure Reading"
                }
              ],
              "extension": [
                {
                  "url": "http://hl7.org/fhir/us/vitals/StructureDefinition/MeasurementSettingExt",
                  "valueCoding": {
                    "system": "http://snomed.info/sct",
                    "code": "264362003"
                  }
                }
              ],
              "category": [
                {
                  "coding": [
                    {
                      "system": "http://terminology.hl7.org/CodeSystem/observation-category",
                      "code": "vital-signs",
                      "display": "vital-signs"
                    }
                  ]
                }
              ],
              "code": {
                "coding": [
                  {
                    "system": "http://loinc.org",
                    "code": "55284-4",
                    "display": "Blood Pressure"
                  }
                ],
                "text": "Blood Pressure"
              },
              "subject": {
                "reference": "Patient/M-BPUncontrolledVarLow"
              },
              "encounter": {
                "reference": "Encounter/encounter-M-BPUncontrolledVarLow-1"
              },
              "effectiveDateTime": "2022-12-14T15:16:21-05:00",
              "component": [
                {
                  "code": {
                    "coding": [
                      {
                        "system": "http://loinc.org",
                        "code": "8462-4",
                        "display": "Diastolic Blood Pressure"
                      }
                    ],
                    "text": "Diastolic Blood Pressure"
                  },
                  "valueQuantity": {
                    "value": 88,
                    "unit": "mm[Hg]",
                    "system": "http://unitsofmeasure.org",
                    "code": "mm[Hg]"
                  }
                },
                {
                  "code": {
                    "coding": [
                      {
                        "system": "http://loinc.org",
                        "code": "8480-6",
                        "display": "Systolic Blood Pressure"
                      }
                    ],
                    "text": "Systolic Blood Pressure"
                  },
                  "valueQuantity": {
                    "value": 145,
                    "unit": "mm[Hg]",
                    "system": "http://unitsofmeasure.org",
                    "code": "mm[Hg]"
                  }
                }
              ]
            },
            "request": {
              "method": "PUT",
              "url": "request-url"
            }
          },
          {
            "resource": {
              "resourceType": "Observation",
              "id": "observation-M-BPUncontrolledVarLow-1",
              "status": "final",
              "note": [
                {
                  "text": "Home Blood Pressure Reading"
                }
              ],
              "extension": [
                {
                  "url": "http://hl7.org/fhir/us/vitals/StructureDefinition/MeasurementSettingExt",
                  "valueCoding": {
                    "system": "http://snomed.info/sct",
                    "code": "264362003"
                  }
                }
              ],
              "category": [
                {
                  "coding": [
                    {
                      "system": "http://terminology.hl7.org/CodeSystem/observation-category",
                      "code": "vital-signs",
                      "display": "vital-signs"
                    }
                  ]
                }
              ],
              "code": {
                "coding": [
                  {
                    "system": "http://loinc.org",
                    "code": "55284-4",
                    "display": "Blood Pressure"
                  }
                ],
                "text": "Blood Pressure"
              },
              "subject": {
                "reference": "Patient/M-BPUncontrolledVarLow"
              },
              "encounter": {
                "reference": "Encounter/encounter-M-BPUncontrolledVarLow-1"
              },
              "effectiveDateTime": "2022-11-17T15:16:21-05:00",
              "component": [
                {
                  "code": {
                    "coding": [
                      {
                        "system": "http://loinc.org",
                        "code": "8462-4",
                        "display": "Diastolic Blood Pressure"
                      }
                    ],
                    "text": "Diastolic Blood Pressure"
                  },
                  "valueQuantity": {
                    "value": 88,
                    "unit": "mm[Hg]",
                    "system": "http://unitsofmeasure.org",
                    "code": "mm[Hg]"
                  }
                },
                {
                  "code": {
                    "coding": [
                      {
                        "system": "http://loinc.org",
                        "code": "8480-6",
                        "display": "Systolic Blood Pressure"
                      }
                    ],
                    "text": "Systolic Blood Pressure"
                  },
                  "valueQuantity": {
                    "value": 145,
                    "unit": "mm[Hg]",
                    "system": "http://unitsofmeasure.org",
                    "code": "mm[Hg]"
                  }
                }
              ]
            },
            "request": {
              "method": "PUT",
              "url": "request-url"
            }
          },
          {
            "resource": {
              "resourceType": "Observation",
              "id": "observation-M-BPUncontrolledVarLow-11",
              "status": "final",
              "note": [
                {
                  "text": "Home Blood Pressure Reading"
                }
              ],
              "extension": [
                {
                  "url": "http://hl7.org/fhir/us/vitals/StructureDefinition/MeasurementSettingExt",
                  "valueCoding": {
                    "system": "http://snomed.info/sct",
                    "code": "264362003"
                  }
                }
              ],
              "category": [
                {
                  "coding": [
                    {
                      "system": "http://terminology.hl7.org/CodeSystem/observation-category",
                      "code": "vital-signs",
                      "display": "vital-signs"
                    }
                  ]
                }
              ],
              "code": {
                "coding": [
                  {
                    "system": "http://loinc.org",
                    "code": "55284-4",
                    "display": "Blood Pressure"
                  }
                ],
                "text": "Blood Pressure"
              },
              "subject": {
                "reference": "Patient/M-BPUncontrolledVarLow"
              },
              "encounter": {
                "reference": "Encounter/encounter-M-BPUncontrolledVarLow-1"
              },
              "effectiveDateTime": "2022-12-18T15:16:21-05:00",
              "component": [
                {
                  "code": {
                    "coding": [
                      {
                        "system": "http://loinc.org",
                        "code": "8462-4",
                        "display": "Diastolic Blood Pressure"
                      }
                    ],
                    "text": "Diastolic Blood Pressure"
                  },
                  "valueQuantity": {
                    "value": 88,
                    "unit": "mm[Hg]",
                    "system": "http://unitsofmeasure.org",
                    "code": "mm[Hg]"
                  }
                },
                {
                  "code": {
                    "coding": [
                      {
                        "system": "http://loinc.org",
                        "code": "8480-6",
                        "display": "Systolic Blood Pressure"
                      }
                    ],
                    "text": "Systolic Blood Pressure"
                  },
                  "valueQuantity": {
                    "value": 145,
                    "unit": "mm[Hg]",
                    "system": "http://unitsofmeasure.org",
                    "code": "mm[Hg]"
                  }
                }
              ]
            },
            "request": {
              "method": "PUT",
              "url": "request-url"
            }
          },
          {
            "resource": {
              "resourceType": "Observation",
              "id": "observation-M-BPUncontrolledVarLow-27",
              "status": "final",
              "note": [
                {
                  "text": "Home Blood Pressure Reading"
                }
              ],
              "extension": [
                {
                  "url": "http://hl7.org/fhir/us/vitals/StructureDefinition/MeasurementSettingExt",
                  "valueCoding": {
                    "system": "http://snomed.info/sct",
                    "code": "264362003"
                  }
                }
              ],
              "category": [
                {
                  "coding": [
                    {
                      "system": "http://terminology.hl7.org/CodeSystem/observation-category",
                      "code": "vital-signs",
                      "display": "vital-signs"
                    }
                  ]
                }
              ],
              "code": {
                "coding": [
                  {
                    "system": "http://loinc.org",
                    "code": "55284-4",
                    "display": "Blood Pressure"
                  }
                ],
                "text": "Blood Pressure"
              },
              "subject": {
                "reference": "Patient/M-BPUncontrolledVarLow"
              },
              "encounter": {
                "reference": "Encounter/encounter-M-BPUncontrolledVarLow-1"
              },
              "effectiveDateTime": "2023-02-02T15:16:21-05:00",
              "component": [
                {
                  "code": {
                    "coding": [
                      {
                        "system": "http://loinc.org",
                        "code": "8462-4",
                        "display": "Diastolic Blood Pressure"
                      }
                    ],
                    "text": "Diastolic Blood Pressure"
                  },
                  "valueQuantity": {
                    "value": 94,
                    "unit": "mm[Hg]",
                    "system": "http://unitsofmeasure.org",
                    "code": "mm[Hg]"
                  }
                },
                {
                  "code": {
                    "coding": [
                      {
                        "system": "http://loinc.org",
                        "code": "8480-6",
                        "display": "Systolic Blood Pressure"
                      }
                    ],
                    "text": "Systolic Blood Pressure"
                  },
                  "valueQuantity": {
                    "value": 158,
                    "unit": "mm[Hg]",
                    "system": "http://unitsofmeasure.org",
                    "code": "mm[Hg]"
                  }
                }
              ]
            },
            "request": {
              "method": "PUT",
              "url": "request-url"
            }
          },
          {
            "resource": {
              "resourceType": "Observation",
              "id": "observation-M-BPUncontrolledVarLow-24",
              "status": "final",
              "note": [
                {
                  "text": "Home Blood Pressure Reading"
                }
              ],
              "extension": [
                {
                  "url": "http://hl7.org/fhir/us/vitals/StructureDefinition/MeasurementSettingExt",
                  "valueCoding": {
                    "system": "http://snomed.info/sct",
                    "code": "264362003"
                  }
                }
              ],
              "category": [
                {
                  "coding": [
                    {
                      "system": "http://terminology.hl7.org/CodeSystem/observation-category",
                      "code": "vital-signs",
                      "display": "vital-signs"
                    }
                  ]
                }
              ],
              "code": {
                "coding": [
                  {
                    "system": "http://loinc.org",
                    "code": "55284-4",
                    "display": "Blood Pressure"
                  }
                ],
                "text": "Blood Pressure"
              },
              "subject": {
                "reference": "Patient/M-BPUncontrolledVarLow"
              },
              "encounter": {
                "reference": "Encounter/encounter-M-BPUncontrolledVarLow-1"
              },
              "effectiveDateTime": "2023-01-24T15:16:21-05:00",
              "component": [
                {
                  "code": {
                    "coding": [
                      {
                        "system": "http://loinc.org",
                        "code": "8462-4",
                        "display": "Diastolic Blood Pressure"
                      }
                    ],
                    "text": "Diastolic Blood Pressure"
                  },
                  "valueQuantity": {
                    "value": 94,
                    "unit": "mm[Hg]",
                    "system": "http://unitsofmeasure.org",
                    "code": "mm[Hg]"
                  }
                },
                {
                  "code": {
                    "coding": [
                      {
                        "system": "http://loinc.org",
                        "code": "8480-6",
                        "display": "Systolic Blood Pressure"
                      }
                    ],
                    "text": "Systolic Blood Pressure"
                  },
                  "valueQuantity": {
                    "value": 157,
                    "unit": "mm[Hg]",
                    "system": "http://unitsofmeasure.org",
                    "code": "mm[Hg]"
                  }
                }
              ]
            },
            "request": {
              "method": "PUT",
              "url": "request-url"
            }
          },
          {
            "resource": {
              "resourceType": "Observation",
              "id": "observation-M-BPUncontrolledVarLow-28",
              "status": "final",
              "note": [
                {
                  "text": "Home Blood Pressure Reading"
                }
              ],
              "extension": [
                {
                  "url": "http://hl7.org/fhir/us/vitals/StructureDefinition/MeasurementSettingExt",
                  "valueCoding": {
                    "system": "http://snomed.info/sct",
                    "code": "264362003"
                  }
                }
              ],
              "category": [
                {
                  "coding": [
                    {
                      "system": "http://terminology.hl7.org/CodeSystem/observation-category",
                      "code": "vital-signs",
                      "display": "vital-signs"
                    }
                  ]
                }
              ],
              "code": {
                "coding": [
                  {
                    "system": "http://loinc.org",
                    "code": "55284-4",
                    "display": "Blood Pressure"
                  }
                ],
                "text": "Blood Pressure"
              },
              "subject": {
                "reference": "Patient/M-BPUncontrolledVarLow"
              },
              "encounter": {
                "reference": "Encounter/encounter-M-BPUncontrolledVarLow-1"
              },
              "effectiveDateTime": "2023-02-05T15:16:21-05:00",
              "component": [
                {
                  "code": {
                    "coding": [
                      {
                        "system": "http://loinc.org",
                        "code": "8462-4",
                        "display": "Diastolic Blood Pressure"
                      }
                    ],
                    "text": "Diastolic Blood Pressure"
                  },
                  "valueQuantity": {
                    "value": 76,
                    "unit": "mm[Hg]",
                    "system": "http://unitsofmeasure.org",
                    "code": "mm[Hg]"
                  }
                },
                {
                  "code": {
                    "coding": [
                      {
                        "system": "http://loinc.org",
                        "code": "8480-6",
                        "display": "Systolic Blood Pressure"
                      }
                    ],
                    "text": "Systolic Blood Pressure"
                  },
                  "valueQuantity": {
                    "value": 122,
                    "unit": "mm[Hg]",
                    "system": "http://unitsofmeasure.org",
                    "code": "mm[Hg]"
                  }
                }
              ]
            },
            "request": {
              "method": "PUT",
              "url": "request-url"
            }
          },
          {
            "resource": {
              "resourceType": "Observation",
              "id": "observation-M-BPUncontrolledVarLow-2",
              "status": "final",
              "note": [
                {
                  "text": "Home Blood Pressure Reading"
                }
              ],
              "extension": [
                {
                  "url": "http://hl7.org/fhir/us/vitals/StructureDefinition/MeasurementSettingExt",
                  "valueCoding": {
                    "system": "http://snomed.info/sct",
                    "code": "264362003"
                  }
                }
              ],
              "category": [
                {
                  "coding": [
                    {
                      "system": "http://terminology.hl7.org/CodeSystem/observation-category",
                      "code": "vital-signs",
                      "display": "vital-signs"
                    }
                  ]
                }
              ],
              "code": {
                "coding": [
                  {
                    "system": "http://loinc.org",
                    "code": "55284-4",
                    "display": "Blood Pressure"
                  }
                ],
                "text": "Blood Pressure"
              },
              "subject": {
                "reference": "Patient/M-BPUncontrolledVarLow"
              },
              "encounter": {
                "reference": "Encounter/encounter-M-BPUncontrolledVarLow-1"
              },
              "effectiveDateTime": "2022-11-20T15:16:21-05:00",
              "component": [
                {
                  "code": {
                    "coding": [
                      {
                        "system": "http://loinc.org",
                        "code": "8462-4",
                        "display": "Diastolic Blood Pressure"
                      }
                    ],
                    "text": "Diastolic Blood Pressure"
                  },
                  "valueQuantity": {
                    "value": 95,
                    "unit": "mm[Hg]",
                    "system": "http://unitsofmeasure.org",
                    "code": "mm[Hg]"
                  }
                },
                {
                  "code": {
                    "coding": [
                      {
                        "system": "http://loinc.org",
                        "code": "8480-6",
                        "display": "Systolic Blood Pressure"
                      }
                    ],
                    "text": "Systolic Blood Pressure"
                  },
                  "valueQuantity": {
                    "value": 160,
                    "unit": "mm[Hg]",
                    "system": "http://unitsofmeasure.org",
                    "code": "mm[Hg]"
                  }
                }
              ]
            },
            "request": {
              "method": "PUT",
              "url": "request-url"
            }
          },
          {
            "resource": {
              "resourceType": "Observation",
              "id": "observation-M-BPUncontrolledVarLow-12",
              "status": "final",
              "note": [
                {
                  "text": "Home Blood Pressure Reading"
                }
              ],
              "extension": [
                {
                  "url": "http://hl7.org/fhir/us/vitals/StructureDefinition/MeasurementSettingExt",
                  "valueCoding": {
                    "system": "http://snomed.info/sct",
                    "code": "264362003"
                  }
                }
              ],
              "category": [
                {
                  "coding": [
                    {
                      "system": "http://terminology.hl7.org/CodeSystem/observation-category",
                      "code": "vital-signs",
                      "display": "vital-signs"
                    }
                  ]
                }
              ],
              "code": {
                "coding": [
                  {
                    "system": "http://loinc.org",
                    "code": "55284-4",
                    "display": "Blood Pressure"
                  }
                ],
                "text": "Blood Pressure"
              },
              "subject": {
                "reference": "Patient/M-BPUncontrolledVarLow"
              },
              "encounter": {
                "reference": "Encounter/encounter-M-BPUncontrolledVarLow-1"
              },
              "effectiveDateTime": "2022-12-20T15:16:21-05:00",
              "component": [
                {
                  "code": {
                    "coding": [
                      {
                        "system": "http://loinc.org",
                        "code": "8462-4",
                        "display": "Diastolic Blood Pressure"
                      }
                    ],
                    "text": "Diastolic Blood Pressure"
                  },
                  "valueQuantity": {
                    "value": 95,
                    "unit": "mm[Hg]",
                    "system": "http://unitsofmeasure.org",
                    "code": "mm[Hg]"
                  }
                },
                {
                  "code": {
                    "coding": [
                      {
                        "system": "http://loinc.org",
                        "code": "8480-6",
                        "display": "Systolic Blood Pressure"
                      }
                    ],
                    "text": "Systolic Blood Pressure"
                  },
                  "valueQuantity": {
                    "value": 160,
                    "unit": "mm[Hg]",
                    "system": "http://unitsofmeasure.org",
                    "code": "mm[Hg]"
                  }
                }
              ]
            },
            "request": {
              "method": "PUT",
              "url": "request-url"
            }
          },
          {
            "resource": {
              "resourceType": "Observation",
              "id": "observation-M-BPUncontrolledVarLow-13",
              "status": "final",
              "note": [
                {
                  "text": "Home Blood Pressure Reading"
                }
              ],
              "extension": [
                {
                  "url": "http://hl7.org/fhir/us/vitals/StructureDefinition/MeasurementSettingExt",
                  "valueCoding": {
                    "system": "http://snomed.info/sct",
                    "code": "264362003"
                  }
                }
              ],
              "category": [
                {
                  "coding": [
                    {
                      "system": "http://terminology.hl7.org/CodeSystem/observation-category",
                      "code": "vital-signs",
                      "display": "vital-signs"
                    }
                  ]
                }
              ],
              "code": {
                "coding": [
                  {
                    "system": "http://loinc.org",
                    "code": "55284-4",
                    "display": "Blood Pressure"
                  }
                ],
                "text": "Blood Pressure"
              },
              "subject": {
                "reference": "Patient/M-BPUncontrolledVarLow"
              },
              "encounter": {
                "reference": "Encounter/encounter-M-BPUncontrolledVarLow-1"
              },
              "effectiveDateTime": "2022-12-23T15:16:21-05:00",
              "component": [
                {
                  "code": {
                    "coding": [
                      {
                        "system": "http://loinc.org",
                        "code": "8462-4",
                        "display": "Diastolic Blood Pressure"
                      }
                    ],
                    "text": "Diastolic Blood Pressure"
                  },
                  "valueQuantity": {
                    "value": 81,
                    "unit": "mm[Hg]",
                    "system": "http://unitsofmeasure.org",
                    "code": "mm[Hg]"
                  }
                },
                {
                  "code": {
                    "coding": [
                      {
                        "system": "http://loinc.org",
                        "code": "8480-6",
                        "display": "Systolic Blood Pressure"
                      }
                    ],
                    "text": "Systolic Blood Pressure"
                  },
                  "valueQuantity": {
                    "value": 132,
                    "unit": "mm[Hg]",
                    "system": "http://unitsofmeasure.org",
                    "code": "mm[Hg]"
                  }
                }
              ]
            },
            "request": {
              "method": "PUT",
              "url": "request-url"
            }
          },
          {
            "resource": {
              "resourceType": "Observation",
              "id": "observation-M-BPUncontrolledVarLow-3",
              "status": "final",
              "note": [
                {
                  "text": "Home Blood Pressure Reading"
                }
              ],
              "extension": [
                {
                  "url": "http://hl7.org/fhir/us/vitals/StructureDefinition/MeasurementSettingExt",
                  "valueCoding": {
                    "system": "http://snomed.info/sct",
                    "code": "264362003"
                  }
                }
              ],
              "category": [
                {
                  "coding": [
                    {
                      "system": "http://terminology.hl7.org/CodeSystem/observation-category",
                      "code": "vital-signs",
                      "display": "vital-signs"
                    }
                  ]
                }
              ],
              "code": {
                "coding": [
                  {
                    "system": "http://loinc.org",
                    "code": "55284-4",
                    "display": "Blood Pressure"
                  }
                ],
                "text": "Blood Pressure"
              },
              "subject": {
                "reference": "Patient/M-BPUncontrolledVarLow"
              },
              "encounter": {
                "reference": "Encounter/encounter-M-BPUncontrolledVarLow-1"
              },
              "effectiveDateTime": "2022-11-23T15:16:21-05:00",
              "component": [
                {
                  "code": {
                    "coding": [
                      {
                        "system": "http://loinc.org",
                        "code": "8462-4",
                        "display": "Diastolic Blood Pressure"
                      }
                    ],
                    "text": "Diastolic Blood Pressure"
                  },
                  "valueQuantity": {
                    "value": 81,
                    "unit": "mm[Hg]",
                    "system": "http://unitsofmeasure.org",
                    "code": "mm[Hg]"
                  }
                },
                {
                  "code": {
                    "coding": [
                      {
                        "system": "http://loinc.org",
                        "code": "8480-6",
                        "display": "Systolic Blood Pressure"
                      }
                    ],
                    "text": "Systolic Blood Pressure"
                  },
                  "valueQuantity": {
                    "value": 132,
                    "unit": "mm[Hg]",
                    "system": "http://unitsofmeasure.org",
                    "code": "mm[Hg]"
                  }
                }
              ]
            },
            "request": {
              "method": "PUT",
              "url": "request-url"
            }
          },
          {
            "resource": {
              "resourceType": "Observation",
              "id": "observation-M-BPUncontrolledVarLow-29",
              "status": "final",
              "note": [
                {
                  "text": "Home Blood Pressure Reading"
                }
              ],
              "extension": [
                {
                  "url": "http://hl7.org/fhir/us/vitals/StructureDefinition/MeasurementSettingExt",
                  "valueCoding": {
                    "system": "http://snomed.info/sct",
                    "code": "264362003"
                  }
                }
              ],
              "category": [
                {
                  "coding": [
                    {
                      "system": "http://terminology.hl7.org/CodeSystem/observation-category",
                      "code": "vital-signs",
                      "display": "vital-signs"
                    }
                  ]
                }
              ],
              "code": {
                "coding": [
                  {
                    "system": "http://loinc.org",
                    "code": "55284-4",
                    "display": "Blood Pressure"
                  }
                ],
                "text": "Blood Pressure"
              },
              "subject": {
                "reference": "Patient/M-BPUncontrolledVarLow"
              },
              "encounter": {
                "reference": "Encounter/encounter-M-BPUncontrolledVarLow-1"
              },
              "effectiveDateTime": "2023-02-08T15:16:21-05:00",
              "component": [
                {
                  "code": {
                    "coding": [
                      {
                        "system": "http://loinc.org",
                        "code": "8462-4",
                        "display": "Diastolic Blood Pressure"
                      }
                    ],
                    "text": "Diastolic Blood Pressure"
                  },
                  "valueQuantity": {
                    "value": 100,
                    "unit": "mm[Hg]",
                    "system": "http://unitsofmeasure.org",
                    "code": "mm[Hg]"
                  }
                },
                {
                  "code": {
                    "coding": [
                      {
                        "system": "http://loinc.org",
                        "code": "8480-6",
                        "display": "Systolic Blood Pressure"
                      }
                    ],
                    "text": "Systolic Blood Pressure"
                  },
                  "valueQuantity": {
                    "value": 169,
                    "unit": "mm[Hg]",
                    "system": "http://unitsofmeasure.org",
                    "code": "mm[Hg]"
                  }
                }
              ]
            },
            "request": {
              "method": "PUT",
              "url": "request-url"
            }
          },
          {
            "resource": {
              "resourceType": "Observation",
              "id": "observation-M-BPUncontrolledVarLow-25",
              "status": "final",
              "note": [
                {
                  "text": "Home Blood Pressure Reading"
                }
              ],
              "extension": [
                {
                  "url": "http://hl7.org/fhir/us/vitals/StructureDefinition/MeasurementSettingExt",
                  "valueCoding": {
                    "system": "http://snomed.info/sct",
                    "code": "264362003"
                  }
                }
              ],
              "category": [
                {
                  "coding": [
                    {
                      "system": "http://terminology.hl7.org/CodeSystem/observation-category",
                      "code": "vital-signs",
                      "display": "vital-signs"
                    }
                  ]
                }
              ],
              "code": {
                "coding": [
                  {
                    "system": "http://loinc.org",
                    "code": "55284-4",
                    "display": "Blood Pressure"
                  }
                ],
                "text": "Blood Pressure"
              },
              "subject": {
                "reference": "Patient/M-BPUncontrolledVarLow"
              },
              "encounter": {
                "reference": "Encounter/encounter-M-BPUncontrolledVarLow-1"
              },
              "effectiveDateTime": "2023-01-27T15:16:21-05:00",
              "component": [
                {
                  "code": {
                    "coding": [
                      {
                        "system": "http://loinc.org",
                        "code": "8462-4",
                        "display": "Diastolic Blood Pressure"
                      }
                    ],
                    "text": "Diastolic Blood Pressure"
                  },
                  "valueQuantity": {
                    "value": 77,
                    "unit": "mm[Hg]",
                    "system": "http://unitsofmeasure.org",
                    "code": "mm[Hg]"
                  }
                },
                {
                  "code": {
                    "coding": [
                      {
                        "system": "http://loinc.org",
                        "code": "8480-6",
                        "display": "Systolic Blood Pressure"
                      }
                    ],
                    "text": "Systolic Blood Pressure"
                  },
                  "valueQuantity": {
                    "value": 124,
                    "unit": "mm[Hg]",
                    "system": "http://unitsofmeasure.org",
                    "code": "mm[Hg]"
                  }
                }
              ]
            },
            "request": {
              "method": "PUT",
              "url": "request-url"
            }
          },
          {
            "resource": {
              "resourceType": "Observation",
              "id": "observation-M-BPUncontrolledVarLow-4",
              "status": "final",
              "note": [
                {
                  "text": "Home Blood Pressure Reading"
                }
              ],
              "extension": [
                {
                  "url": "http://hl7.org/fhir/us/vitals/StructureDefinition/MeasurementSettingExt",
                  "valueCoding": {
                    "system": "http://snomed.info/sct",
                    "code": "264362003"
                  }
                }
              ],
              "category": [
                {
                  "coding": [
                    {
                      "system": "http://terminology.hl7.org/CodeSystem/observation-category",
                      "code": "vital-signs",
                      "display": "vital-signs"
                    }
                  ]
                }
              ],
              "code": {
                "coding": [
                  {
                    "system": "http://loinc.org",
                    "code": "55284-4",
                    "display": "Blood Pressure"
                  }
                ],
                "text": "Blood Pressure"
              },
              "subject": {
                "reference": "Patient/M-BPUncontrolledVarLow"
              },
              "encounter": {
                "reference": "Encounter/encounter-M-BPUncontrolledVarLow-1"
              },
              "effectiveDateTime": "2022-11-26T15:16:21-05:00",
              "component": [
                {
                  "code": {
                    "coding": [
                      {
                        "system": "http://loinc.org",
                        "code": "8462-4",
                        "display": "Diastolic Blood Pressure"
                      }
                    ],
                    "text": "Diastolic Blood Pressure"
                  },
                  "valueQuantity": {
                    "value": 94,
                    "unit": "mm[Hg]",
                    "system": "http://unitsofmeasure.org",
                    "code": "mm[Hg]"
                  }
                },
                {
                  "code": {
                    "coding": [
                      {
                        "system": "http://loinc.org",
                        "code": "8480-6",
                        "display": "Systolic Blood Pressure"
                      }
                    ],
                    "text": "Systolic Blood Pressure"
                  },
                  "valueQuantity": {
                    "value": 157,
                    "unit": "mm[Hg]",
                    "system": "http://unitsofmeasure.org",
                    "code": "mm[Hg]"
                  }
                }
              ]
            },
            "request": {
              "method": "PUT",
              "url": "request-url"
            }
          },
          {
            "resource": {
              "resourceType": "Observation",
              "id": "observation-M-BPUncontrolledVarLow-14",
              "status": "final",
              "note": [
                {
                  "text": "Home Blood Pressure Reading"
                }
              ],
              "extension": [
                {
                  "url": "http://hl7.org/fhir/us/vitals/StructureDefinition/MeasurementSettingExt",
                  "valueCoding": {
                    "system": "http://snomed.info/sct",
                    "code": "264362003"
                  }
                }
              ],
              "category": [
                {
                  "coding": [
                    {
                      "system": "http://terminology.hl7.org/CodeSystem/observation-category",
                      "code": "vital-signs",
                      "display": "vital-signs"
                    }
                  ]
                }
              ],
              "code": {
                "coding": [
                  {
                    "system": "http://loinc.org",
                    "code": "55284-4",
                    "display": "Blood Pressure"
                  }
                ],
                "text": "Blood Pressure"
              },
              "subject": {
                "reference": "Patient/M-BPUncontrolledVarLow"
              },
              "encounter": {
                "reference": "Encounter/encounter-M-BPUncontrolledVarLow-1"
              },
              "effectiveDateTime": "2022-12-26T15:16:21-05:00",
              "component": [
                {
                  "code": {
                    "coding": [
                      {
                        "system": "http://loinc.org",
                        "code": "8462-4",
                        "display": "Diastolic Blood Pressure"
                      }
                    ],
                    "text": "Diastolic Blood Pressure"
                  },
                  "valueQuantity": {
                    "value": 94,
                    "unit": "mm[Hg]",
                    "system": "http://unitsofmeasure.org",
                    "code": "mm[Hg]"
                  }
                },
                {
                  "code": {
                    "coding": [
                      {
                        "system": "http://loinc.org",
                        "code": "8480-6",
                        "display": "Systolic Blood Pressure"
                      }
                    ],
                    "text": "Systolic Blood Pressure"
                  },
                  "valueQuantity": {
                    "value": 157,
                    "unit": "mm[Hg]",
                    "system": "http://unitsofmeasure.org",
                    "code": "mm[Hg]"
                  }
                }
              ]
            },
            "request": {
              "method": "PUT",
              "url": "request-url"
            }
          },
          {
            "resource": {
              "resourceType": "Observation",
              "id": "observation-M-BPUncontrolledVarLow-22",
              "status": "final",
              "note": [
                {
                  "text": "Home Blood Pressure Reading"
                }
              ],
              "extension": [
                {
                  "url": "http://hl7.org/fhir/us/vitals/StructureDefinition/MeasurementSettingExt",
                  "valueCoding": {
                    "system": "http://snomed.info/sct",
                    "code": "264362003"
                  }
                }
              ],
              "category": [
                {
                  "coding": [
                    {
                      "system": "http://terminology.hl7.org/CodeSystem/observation-category",
                      "code": "vital-signs",
                      "display": "vital-signs"
                    }
                  ]
                }
              ],
              "code": {
                "coding": [
                  {
                    "system": "http://loinc.org",
                    "code": "55284-4",
                    "display": "Blood Pressure"
                  }
                ],
                "text": "Blood Pressure"
              },
              "subject": {
                "reference": "Patient/M-BPUncontrolledVarLow"
              },
              "encounter": {
                "reference": "Encounter/encounter-M-BPUncontrolledVarLow-1"
              },
              "effectiveDateTime": "2023-01-18T15:16:21-05:00",
              "component": [
                {
                  "code": {
                    "coding": [
                      {
                        "system": "http://loinc.org",
                        "code": "8462-4",
                        "display": "Diastolic Blood Pressure"
                      }
                    ],
                    "text": "Diastolic Blood Pressure"
                  },
                  "valueQuantity": {
                    "value": 95,
                    "unit": "mm[Hg]",
                    "system": "http://unitsofmeasure.org",
                    "code": "mm[Hg]"
                  }
                },
                {
                  "code": {
                    "coding": [
                      {
                        "system": "http://loinc.org",
                        "code": "8480-6",
                        "display": "Systolic Blood Pressure"
                      }
                    ],
                    "text": "Systolic Blood Pressure"
                  },
                  "valueQuantity": {
                    "value": 160,
                    "unit": "mm[Hg]",
                    "system": "http://unitsofmeasure.org",
                    "code": "mm[Hg]"
                  }
                }
              ]
            },
            "request": {
              "method": "PUT",
              "url": "request-url"
            }
          },
          {
            "resource": {
              "resourceType": "Observation",
              "id": "observation-M-BPUncontrolledVarLow-8",
              "status": "final",
              "note": [
                {
                  "text": "Home Blood Pressure Reading"
                }
              ],
              "extension": [
                {
                  "url": "http://hl7.org/fhir/us/vitals/StructureDefinition/MeasurementSettingExt",
                  "valueCoding": {
                    "system": "http://snomed.info/sct",
                    "code": "264362003"
                  }
                }
              ],
              "category": [
                {
                  "coding": [
                    {
                      "system": "http://terminology.hl7.org/CodeSystem/observation-category",
                      "code": "vital-signs",
                      "display": "vital-signs"
                    }
                  ]
                }
              ],
              "code": {
                "coding": [
                  {
                    "system": "http://loinc.org",
                    "code": "55284-4",
                    "display": "Blood Pressure"
                  }
                ],
                "text": "Blood Pressure"
              },
              "subject": {
                "reference": "Patient/M-BPUncontrolledVarLow"
              },
              "encounter": {
                "reference": "Encounter/encounter-M-BPUncontrolledVarLow-1"
              },
              "effectiveDateTime": "2022-12-08T15:16:21-05:00",
              "component": [
                {
                  "code": {
                    "coding": [
                      {
                        "system": "http://loinc.org",
                        "code": "8462-4",
                        "display": "Diastolic Blood Pressure"
                      }
                    ],
                    "text": "Diastolic Blood Pressure"
                  },
                  "valueQuantity": {
                    "value": 76,
                    "unit": "mm[Hg]",
                    "system": "http://unitsofmeasure.org",
                    "code": "mm[Hg]"
                  }
                },
                {
                  "code": {
                    "coding": [
                      {
                        "system": "http://loinc.org",
                        "code": "8480-6",
                        "display": "Systolic Blood Pressure"
                      }
                    ],
                    "text": "Systolic Blood Pressure"
                  },
                  "valueQuantity": {
                    "value": 122,
                    "unit": "mm[Hg]",
                    "system": "http://unitsofmeasure.org",
                    "code": "mm[Hg]"
                  }
                }
              ]
            },
            "request": {
              "method": "PUT",
              "url": "request-url"
            }
          },
          {
            "resource": {
              "resourceType": "Observation",
              "id": "observation-M-BPUncontrolledVarLow-18",
              "status": "final",
              "note": [
                {
                  "text": "Home Blood Pressure Reading"
                }
              ],
              "extension": [
                {
                  "url": "http://hl7.org/fhir/us/vitals/StructureDefinition/MeasurementSettingExt",
                  "valueCoding": {
                    "system": "http://snomed.info/sct",
                    "code": "264362003"
                  }
                }
              ],
              "category": [
                {
                  "coding": [
                    {
                      "system": "http://terminology.hl7.org/CodeSystem/observation-category",
                      "code": "vital-signs",
                      "display": "vital-signs"
                    }
                  ]
                }
              ],
              "code": {
                "coding": [
                  {
                    "system": "http://loinc.org",
                    "code": "55284-4",
                    "display": "Blood Pressure"
                  }
                ],
                "text": "Blood Pressure"
              },
              "subject": {
                "reference": "Patient/M-BPUncontrolledVarLow"
              },
              "encounter": {
                "reference": "Encounter/encounter-M-BPUncontrolledVarLow-1"
              },
              "effectiveDateTime": "2023-01-07T15:16:21-05:00",
              "component": [
                {
                  "code": {
                    "coding": [
                      {
                        "system": "http://loinc.org",
                        "code": "8462-4",
                        "display": "Diastolic Blood Pressure"
                      }
                    ],
                    "text": "Diastolic Blood Pressure"
                  },
                  "valueQuantity": {
                    "value": 76,
                    "unit": "mm[Hg]",
                    "system": "http://unitsofmeasure.org",
                    "code": "mm[Hg]"
                  }
                },
                {
                  "code": {
                    "coding": [
                      {
                        "system": "http://loinc.org",
                        "code": "8480-6",
                        "display": "Systolic Blood Pressure"
                      }
                    ],
                    "text": "Systolic Blood Pressure"
                  },
                  "valueQuantity": {
                    "value": 122,
                    "unit": "mm[Hg]",
                    "system": "http://unitsofmeasure.org",
                    "code": "mm[Hg]"
                  }
                }
              ]
            },
            "request": {
              "method": "PUT",
              "url": "request-url"
            }
          },
          {
            "resource": {
              "resourceType": "Observation",
              "id": "observation-M-BPUncontrolledVarLow-19",
              "status": "final",
              "note": [
                {
                  "text": "Home Blood Pressure Reading"
                }
              ],
              "extension": [
                {
                  "url": "http://hl7.org/fhir/us/vitals/StructureDefinition/MeasurementSettingExt",
                  "valueCoding": {
                    "system": "http://snomed.info/sct",
                    "code": "264362003"
                  }
                }
              ],
              "category": [
                {
                  "coding": [
                    {
                      "system": "http://terminology.hl7.org/CodeSystem/observation-category",
                      "code": "vital-signs",
                      "display": "vital-signs"
                    }
                  ]
                }
              ],
              "code": {
                "coding": [
                  {
                    "system": "http://loinc.org",
                    "code": "55284-4",
                    "display": "Blood Pressure"
                  }
                ],
                "text": "Blood Pressure"
              },
              "subject": {
                "reference": "Patient/M-BPUncontrolledVarLow"
              },
              "encounter": {
                "reference": "Encounter/encounter-M-BPUncontrolledVarLow-1"
              },
              "effectiveDateTime": "2023-01-10T15:16:21-05:00",
              "component": [
                {
                  "code": {
                    "coding": [
                      {
                        "system": "http://loinc.org",
                        "code": "8462-4",
                        "display": "Diastolic Blood Pressure"
                      }
                    ],
                    "text": "Diastolic Blood Pressure"
                  },
                  "valueQuantity": {
                    "value": 100,
                    "unit": "mm[Hg]",
                    "system": "http://unitsofmeasure.org",
                    "code": "mm[Hg]"
                  }
                },
                {
                  "code": {
                    "coding": [
                      {
                        "system": "http://loinc.org",
                        "code": "8480-6",
                        "display": "Systolic Blood Pressure"
                      }
                    ],
                    "text": "Systolic Blood Pressure"
                  },
                  "valueQuantity": {
                    "value": 169,
                    "unit": "mm[Hg]",
                    "system": "http://unitsofmeasure.org",
                    "code": "mm[Hg]"
                  }
                }
              ]
            },
            "request": {
              "method": "PUT",
              "url": "request-url"
            }
          },
          {
            "resource": {
              "resourceType": "Observation",
              "id": "observation-M-BPUncontrolledVarLow-9",
              "status": "final",
              "note": [
                {
                  "text": "Home Blood Pressure Reading"
                }
              ],
              "extension": [
                {
                  "url": "http://hl7.org/fhir/us/vitals/StructureDefinition/MeasurementSettingExt",
                  "valueCoding": {
                    "system": "http://snomed.info/sct",
                    "code": "264362003"
                  }
                }
              ],
              "category": [
                {
                  "coding": [
                    {
                      "system": "http://terminology.hl7.org/CodeSystem/observation-category",
                      "code": "vital-signs",
                      "display": "vital-signs"
                    }
                  ]
                }
              ],
              "code": {
                "coding": [
                  {
                    "system": "http://loinc.org",
                    "code": "55284-4",
                    "display": "Blood Pressure"
                  }
                ],
                "text": "Blood Pressure"
              },
              "subject": {
                "reference": "Patient/M-BPUncontrolledVarLow"
              },
              "encounter": {
                "reference": "Encounter/encounter-M-BPUncontrolledVarLow-1"
              },
              "effectiveDateTime": "2022-12-11T15:16:21-05:00",
              "component": [
                {
                  "code": {
                    "coding": [
                      {
                        "system": "http://loinc.org",
                        "code": "8462-4",
                        "display": "Diastolic Blood Pressure"
                      }
                    ],
                    "text": "Diastolic Blood Pressure"
                  },
                  "valueQuantity": {
                    "value": 100,
                    "unit": "mm[Hg]",
                    "system": "http://unitsofmeasure.org",
                    "code": "mm[Hg]"
                  }
                },
                {
                  "code": {
                    "coding": [
                      {
                        "system": "http://loinc.org",
                        "code": "8480-6",
                        "display": "Systolic Blood Pressure"
                      }
                    ],
                    "text": "Systolic Blood Pressure"
                  },
                  "valueQuantity": {
                    "value": 169,
                    "unit": "mm[Hg]",
                    "system": "http://unitsofmeasure.org",
                    "code": "mm[Hg]"
                  }
                }
              ]
            },
            "request": {
              "method": "PUT",
              "url": "request-url"
            }
          },
          {
            "resource": {
              "resourceType": "Observation",
              "id": "observation-M-BPUncontrolledVarLow-23",
              "status": "final",
              "note": [
                {
                  "text": "Home Blood Pressure Reading"
                }
              ],
              "extension": [
                {
                  "url": "http://hl7.org/fhir/us/vitals/StructureDefinition/MeasurementSettingExt",
                  "valueCoding": {
                    "system": "http://snomed.info/sct",
                    "code": "264362003"
                  }
                }
              ],
              "category": [
                {
                  "coding": [
                    {
                      "system": "http://terminology.hl7.org/CodeSystem/observation-category",
                      "code": "vital-signs",
                      "display": "vital-signs"
                    }
                  ]
                }
              ],
              "code": {
                "coding": [
                  {
                    "system": "http://loinc.org",
                    "code": "55284-4",
                    "display": "Blood Pressure"
                  }
                ],
                "text": "Blood Pressure"
              },
              "subject": {
                "reference": "Patient/M-BPUncontrolledVarLow"
              },
              "encounter": {
                "reference": "Encounter/encounter-M-BPUncontrolledVarLow-1"
              },
              "effectiveDateTime": "2023-01-21T15:16:21-05:00",
              "component": [
                {
                  "code": {
                    "coding": [
                      {
                        "system": "http://loinc.org",
                        "code": "8462-4",
                        "display": "Diastolic Blood Pressure"
                      }
                    ],
                    "text": "Diastolic Blood Pressure"
                  },
                  "valueQuantity": {
                    "value": 81,
                    "unit": "mm[Hg]",
                    "system": "http://unitsofmeasure.org",
                    "code": "mm[Hg]"
                  }
                },
                {
                  "code": {
                    "coding": [
                      {
                        "system": "http://loinc.org",
                        "code": "8480-6",
                        "display": "Systolic Blood Pressure"
                      }
                    ],
                    "text": "Systolic Blood Pressure"
                  },
                  "valueQuantity": {
                    "value": 132,
                    "unit": "mm[Hg]",
                    "system": "http://unitsofmeasure.org",
                    "code": "mm[Hg]"
                  }
                }
              ]
            },
            "request": {
              "method": "PUT",
              "url": "request-url"
            }
          },
          {
            "resource": {
              "resourceType": "Observation",
              "id": "observation-M-BPUncontrolledVarLow-15",
              "status": "final",
              "note": [
                {
                  "text": "Home Blood Pressure Reading"
                }
              ],
              "extension": [
                {
                  "url": "http://hl7.org/fhir/us/vitals/StructureDefinition/MeasurementSettingExt",
                  "valueCoding": {
                    "system": "http://snomed.info/sct",
                    "code": "264362003"
                  }
                }
              ],
              "category": [
                {
                  "coding": [
                    {
                      "system": "http://terminology.hl7.org/CodeSystem/observation-category",
                      "code": "vital-signs",
                      "display": "vital-signs"
                    }
                  ]
                }
              ],
              "code": {
                "coding": [
                  {
                    "system": "http://loinc.org",
                    "code": "55284-4",
                    "display": "Blood Pressure"
                  }
                ],
                "text": "Blood Pressure"
              },
              "subject": {
                "reference": "Patient/M-BPUncontrolledVarLow"
              },
              "encounter": {
                "reference": "Encounter/encounter-M-BPUncontrolledVarLow-1"
              },
              "effectiveDateTime": "2022-12-29T15:16:21-05:00",
              "component": [
                {
                  "code": {
                    "coding": [
                      {
                        "system": "http://loinc.org",
                        "code": "8462-4",
                        "display": "Diastolic Blood Pressure"
                      }
                    ],
                    "text": "Diastolic Blood Pressure"
                  },
                  "valueQuantity": {
                    "value": 77,
                    "unit": "mm[Hg]",
                    "system": "http://unitsofmeasure.org",
                    "code": "mm[Hg]"
                  }
                },
                {
                  "code": {
                    "coding": [
                      {
                        "system": "http://loinc.org",
                        "code": "8480-6",
                        "display": "Systolic Blood Pressure"
                      }
                    ],
                    "text": "Systolic Blood Pressure"
                  },
                  "valueQuantity": {
                    "value": 124,
                    "unit": "mm[Hg]",
                    "system": "http://unitsofmeasure.org",
                    "code": "mm[Hg]"
                  }
                }
              ]
            },
            "request": {
              "method": "PUT",
              "url": "request-url"
            }
          },
          {
            "resource": {
              "resourceType": "Observation",
              "id": "observation-M-BPUncontrolledVarLow-5",
              "status": "final",
              "note": [
                {
                  "text": "Home Blood Pressure Reading"
                }
              ],
              "extension": [
                {
                  "url": "http://hl7.org/fhir/us/vitals/StructureDefinition/MeasurementSettingExt",
                  "valueCoding": {
                    "system": "http://snomed.info/sct",
                    "code": "264362003"
                  }
                }
              ],
              "category": [
                {
                  "coding": [
                    {
                      "system": "http://terminology.hl7.org/CodeSystem/observation-category",
                      "code": "vital-signs",
                      "display": "vital-signs"
                    }
                  ]
                }
              ],
              "code": {
                "coding": [
                  {
                    "system": "http://loinc.org",
                    "code": "55284-4",
                    "display": "Blood Pressure"
                  }
                ],
                "text": "Blood Pressure"
              },
              "subject": {
                "reference": "Patient/M-BPUncontrolledVarLow"
              },
              "encounter": {
                "reference": "Encounter/encounter-M-BPUncontrolledVarLow-1"
              },
              "effectiveDateTime": "2022-11-29T15:16:21-05:00",
              "component": [
                {
                  "code": {
                    "coding": [
                      {
                        "system": "http://loinc.org",
                        "code": "8462-4",
                        "display": "Diastolic Blood Pressure"
                      }
                    ],
                    "text": "Diastolic Blood Pressure"
                  },
                  "valueQuantity": {
                    "value": 77,
                    "unit": "mm[Hg]",
                    "system": "http://unitsofmeasure.org",
                    "code": "mm[Hg]"
                  }
                },
                {
                  "code": {
                    "coding": [
                      {
                        "system": "http://loinc.org",
                        "code": "8480-6",
                        "display": "Systolic Blood Pressure"
                      }
                    ],
                    "text": "Systolic Blood Pressure"
                  },
                  "valueQuantity": {
                    "value": 124,
                    "unit": "mm[Hg]",
                    "system": "http://unitsofmeasure.org",
                    "code": "mm[Hg]"
                  }
                }
              ]
            },
            "request": {
              "method": "PUT",
              "url": "request-url"
            }
          },
          {
            "resource": {
              "resourceType": "Goal",
              "id": "goal-M-BPUncontrolledVarLow-1",
              "lifecycleStatus": "active",
              "achievementStatus": {
                "coding": [
                  {
                    "system": "http://terminology.hl7.org/CodeSystem/goal-achievement",
                    "version": "4.0.1",
                    "code": "in-progress",
                    "display": "In Progress"
                  }
                ]
              },
              "statusDate": "2023-04-03",
              "startDate": "2023-04-03",
              "description": {
                "text": "Goal of 135/85"
              },
              "subject": {
                "reference": "Patient/M-BPUncontrolledVarLow"
              },
              "target": [
                {
                  "measure": {
                    "coding": [
                      {
                        "system": "http://loinc.org",
                        "version": "2.68",
                        "code": "8480-6",
                        "display": "Systolic blood pressure"
                      }
                    ]
                  },
                  "detailQuantity": {
                    "value": 135,
                    "unit": "mmHg",
                    "system": "http://unitsofmeasure.org",
                    "code": "mm[Hg]"
                  }
                },
                {
                  "measure": {
                    "coding": [
                      {
                        "system": "http://loinc.org",
                        "version": "2.68",
                        "code": "8462-4",
                        "display": "Diastolic blood pressure"
                      }
                    ]
                  },
                  "detailQuantity": {
                    "value": 85,
                    "unit": "mmHg",
                    "system": "http://unitsofmeasure.org",
                    "code": "mm[Hg]"
                  }
                }
              ]
            },
            "request": {
              "method": "PUT",
              "url": "request-url"
            }
          }
        ]
      }
    }
  }
}