{
  "resourceType": "Bundle",
  "id": "tests-H-PrescribeAmbulatoryBPMonitoring-bundle",
  "type": "transaction",
  "entry": [ {
    "resource": {
      "resourceType": "Encounter",
      "id": "encounter-H-PrescribeAmbulatoryBPMonitoring-1",
      "status": "finished",
      "class": {
        "system": "http://terminology.hl7.org/CodeSystem/v3-ActCode",
        "code": "AMB"
      },
      "type": [ {
        "coding": [ {
          "system": "http://snomed.info/sct",
          "code": "162673000",
          "display": "General examination of patient (procedure)"
        } ],
        "text": "General examination of patient (procedure)"
      } ],
      "subject": {
        "reference": "Patient/H-PrescribeAmbulatoryBPMonitoring"
      },
      "period": {
        "start": "2022-12-21T00:00:00-04:00",
        "end": "2022-12-21T23:59:59-04:00"
      }
    },
    "request": {
      "method": "PUT",
      "url": "Encounter/encounter-H-PrescribeAmbulatoryBPMonitoring-1"
    }
  }, {
    "resource": {
      "resourceType": "Encounter",
      "id": "encounter-H-PrescribeAmbulatoryBPMonitoring-4",
      "status": "finished",
      "class": {
        "system": "http://terminology.hl7.org/CodeSystem/v3-ActCode",
        "code": "AMB"
      },
      "type": [ {
        "coding": [ {
          "system": "http://snomed.info/sct",
          "code": "162673000",
          "display": "General examination of patient (procedure)"
        } ],
        "text": "General examination of patient (procedure)"
      } ],
      "subject": {
        "reference": "Patient/H-PrescribeAmbulatoryBPMonitoring"
      },
      "period": {
        "start": "2023-03-21T00:00:00-04:00",
        "end": "2023-03-21T23:59:59-04:00"
      }
    },
    "request": {
      "method": "PUT",
      "url": "Encounter/encounter-H-PrescribeAmbulatoryBPMonitoring-4"
    }
  }, {
    "resource": {
      "resourceType": "Encounter",
      "id": "encounter-H-PrescribeAmbulatoryBPMonitoring-2",
      "status": "finished",
      "class": {
        "system": "http://terminology.hl7.org/CodeSystem/v3-ActCode",
        "code": "AMB"
      },
      "type": [ {
        "coding": [ {
          "system": "http://snomed.info/sct",
          "code": "162673000",
          "display": "General examination of patient (procedure)"
        } ],
        "text": "General examination of patient (procedure)"
      } ],
      "subject": {
        "reference": "Patient/H-PrescribeAmbulatoryBPMonitoring"
      },
      "period": {
        "start": "2023-01-21T00:00:00-04:00",
        "end": "2023-01-21T23:59:59-04:00"
      }
    },
    "request": {
      "method": "PUT",
      "url": "Encounter/encounter-H-PrescribeAmbulatoryBPMonitoring-2"
    }
  }, {
    "resource": {
      "resourceType": "Encounter",
      "id": "encounter-H-PrescribeAmbulatoryBPMonitoring-3",
      "status": "finished",
      "class": {
        "system": "http://terminology.hl7.org/CodeSystem/v3-ActCode",
        "code": "AMB"
      },
      "type": [ {
        "coding": [ {
          "system": "http://snomed.info/sct",
          "code": "162673000",
          "display": "General examination of patient (procedure)"
        } ],
        "text": "General examination of patient (procedure)"
      } ],
      "subject": {
        "reference": "Patient/H-PrescribeAmbulatoryBPMonitoring"
      },
      "period": {
        "start": "2023-02-18T00:00:00-04:00",
        "end": "2023-02-18T23:59:59-04:00"
      }
    },
    "request": {
      "method": "PUT",
      "url": "Encounter/encounter-H-PrescribeAmbulatoryBPMonitoring-3"
    }
  }, {
    "resource": {
      "resourceType": "Patient",
      "id": "H-PrescribeAmbulatoryBPMonitoring",
      "active": true,
      "name": [ {
        "text": "Prescribe Ambulatory BP Monitoring",
        "family": "AmbulatoryBPMonitoring",
        "given": [ "Prescribe" ]
      } ],
      "gender": "male",
      "birthDate": "1953-03-24"
    },
    "request": {
      "method": "PUT",
      "url": "Patient/H-PrescribeAmbulatoryBPMonitoring"
    }
  }, {
    "resource": {
      "resourceType": "Observation",
      "id": "observation-H-PrescribeAmbulatoryBPMonitoring-1",
      "status": "final",
      "category": [ {
        "coding": [ {
          "system": "http://terminology.hl7.org/CodeSystem/observation-category",
          "code": "vital-signs",
          "display": "vital-signs"
        } ]
      } ],
      "code": {
        "coding": [ {
          "system": "http://loinc.org",
          "code": "55284-4",
          "display": "Blood Pressure"
        } ],
        "text": "Blood Pressure"
      },
      "subject": {
        "reference": "Patient/H-PrescribeAmbulatoryBPMonitoring"
      },
      "encounter": {
        "reference": "Encounter/encounter-H-PrescribeAmbulatoryBPMonitoring-1"
      },
      "effectiveDateTime": "2022-12-21T15:16:21-05:00",
      "note": [ {
        "text": "Office Blood Pressure Reading"
      } ],
      "component": [ {
        "code": {
          "coding": [ {
            "system": "http://loinc.org",
            "code": "8462-4",
            "display": "Diastolic Blood Pressure"
          } ],
          "text": "Diastolic Blood Pressure"
        },
        "valueQuantity": {
          "value": 68.9349105113392,
          "unit": "mm[Hg]",
          "system": "http://unitsofmeasure.org",
          "code": "mm[Hg]"
        }
      }, {
        "code": {
          "coding": [ {
            "system": "http://loinc.org",
            "code": "8480-6",
            "display": "Systolic Blood Pressure"
          } ],
          "text": "Systolic Blood Pressure"
        },
        "valueQuantity": {
          "value": 121.53332100989888,
          "unit": "mm[Hg]",
          "system": "http://unitsofmeasure.org",
          "code": "mm[Hg]"
        }
      } ]
    },
    "request": {
      "method": "PUT",
      "url": "Observation/observation-H-PrescribeAmbulatoryBPMonitoring-1"
    }
  }, {
    "resource": {
      "resourceType": "Observation",
      "id": "observation-H-PrescribeAmbulatoryBPMonitoring-6",
      "extension": [ {
        "url": "http://hl7.org/fhir/us/vitals/StructureDefinition/MeasurementSettingExt",
        "valueCoding": {
          "system": "http://snomed.info/sct",
          "code": "264362003"
        }
      } ],
      "status": "final",
      "category": [ {
        "coding": [ {
          "system": "http://terminology.hl7.org/CodeSystem/observation-category",
          "code": "vital-signs",
          "display": "vital-signs"
        } ]
      } ],
      "code": {
        "coding": [ {
          "system": "http://loinc.org",
          "code": "55284-4",
          "display": "Blood Pressure"
        } ],
        "text": "Blood Pressure"
      },
      "subject": {
        "reference": "Patient/H-PrescribeAmbulatoryBPMonitoring"
      },
      "effectiveDateTime": "2022-11-26T15:16:21-05:00",
      "note": [ {
        "text": "Home Blood Pressure Reading"
      } ],
      "component": [ {
        "code": {
          "coding": [ {
            "system": "http://loinc.org",
            "code": "8462-4",
            "display": "Diastolic Blood Pressure"
          } ],
          "text": "Diastolic Blood Pressure"
        },
        "valueQuantity": {
          "value": 79.52660352979804,
          "unit": "mm[Hg]",
          "system": "http://unitsofmeasure.org",
          "code": "mm[Hg]"
        }
      }, {
        "code": {
          "coding": [ {
            "system": "http://loinc.org",
            "code": "8480-6",
            "display": "Systolic Blood Pressure"
          } ],
          "text": "Systolic Blood Pressure"
        },
        "valueQuantity": {
          "value": 112.65064054117963,
          "unit": "mm[Hg]",
          "system": "http://unitsofmeasure.org",
          "code": "mm[Hg]"
        }
      } ]
    },
    "request": {
      "method": "PUT",
      "url": "Observation/observation-H-PrescribeAmbulatoryBPMonitoring-6"
    }
  }, {
    "resource": {
      "resourceType": "Observation",
      "id": "observation-H-PrescribeAmbulatoryBPMonitoring-4",
      "status": "final",
      "category": [ {
        "coding": [ {
          "system": "http://terminology.hl7.org/CodeSystem/observation-category",
          "code": "vital-signs",
          "display": "vital-signs"
        } ]
      } ],
      "code": {
        "coding": [ {
          "system": "http://loinc.org",
          "code": "55284-4",
          "display": "Blood Pressure"
        } ],
        "text": "Blood Pressure"
      },
      "subject": {
        "reference": "Patient/H-PrescribeAmbulatoryBPMonitoring"
      },
      "encounter": {
        "reference": "Encounter/encounter-H-PrescribeAmbulatoryBPMonitoring-4"
      },
      "effectiveDateTime": "2023-03-21T15:16:21-05:00",
      "note": [ {
        "text": "Office Blood Pressure Reading"
      } ],
      "component": [ {
        "code": {
          "coding": [ {
            "system": "http://loinc.org",
            "code": "8462-4",
            "display": "Diastolic Blood Pressure"
          } ],
          "text": "Diastolic Blood Pressure"
        },
        "valueQuantity": {
          "value": 70.52660352979804,
          "unit": "mm[Hg]",
          "system": "http://unitsofmeasure.org",
          "code": "mm[Hg]"
        }
      }, {
        "code": {
          "coding": [ {
            "system": "http://loinc.org",
            "code": "8480-6",
            "display": "Systolic Blood Pressure"
          } ],
          "text": "Systolic Blood Pressure"
        },
        "valueQuantity": {
          "value": 114.65064054117963,
          "unit": "mm[Hg]",
          "system": "http://unitsofmeasure.org",
          "code": "mm[Hg]"
        }
      } ]
    },
    "request": {
      "method": "PUT",
      "url": "Observation/observation-H-PrescribeAmbulatoryBPMonitoring-4"
    }
  }, {
    "resource": {
      "resourceType": "Observation",
      "id": "observation-H-PrescribeAmbulatoryBPMonitoring-5",
      "extension": [ {
        "url": "http://hl7.org/fhir/us/vitals/StructureDefinition/MeasurementSettingExt",
        "valueCoding": {
          "system": "http://snomed.info/sct",
          "code": "264362003"
        }
      } ],
      "status": "final",
      "category": [ {
        "coding": [ {
          "system": "http://terminology.hl7.org/CodeSystem/observation-category",
          "code": "vital-signs",
          "display": "vital-signs"
        } ]
      } ],
      "code": {
        "coding": [ {
          "system": "http://loinc.org",
          "code": "55284-4",
          "display": "Blood Pressure"
        } ],
        "text": "Blood Pressure"
      },
      "subject": {
        "reference": "Patient/H-PrescribeAmbulatoryBPMonitoring"
      },
      "effectiveDateTime": "2023-04-20T15:16:21-05:00",
      "note": [ {
        "text": "Home Blood Pressure Reading"
      } ],
      "component": [ {
        "code": {
          "coding": [ {
            "system": "http://loinc.org",
            "code": "8462-4",
            "display": "Diastolic Blood Pressure"
          } ],
          "text": "Diastolic Blood Pressure"
        },
        "valueQuantity": {
          "value": 64.52660352979804,
          "unit": "mm[Hg]",
          "system": "http://unitsofmeasure.org",
          "code": "mm[Hg]"
        }
      }, {
        "code": {
          "coding": [ {
            "system": "http://loinc.org",
            "code": "8480-6",
            "display": "Systolic Blood Pressure"
          } ],
          "text": "Systolic Blood Pressure"
        },
        "valueQuantity": {
          "value": 130.65064054117963,
          "unit": "mm[Hg]",
          "system": "http://unitsofmeasure.org",
          "code": "mm[Hg]"
        }
      } ]
    },
    "request": {
      "method": "PUT",
      "url": "Observation/observation-H-PrescribeAmbulatoryBPMonitoring-5"
    }
  }, {
    "resource": {
      "resourceType": "Observation",
      "id": "observation-H-PrescribeAmbulatoryBPMonitoring-2",
      "status": "final",
      "category": [ {
        "coding": [ {
          "system": "http://terminology.hl7.org/CodeSystem/observation-category",
          "code": "vital-signs",
          "display": "vital-signs"
        } ]
      } ],
      "code": {
        "coding": [ {
          "system": "http://loinc.org",
          "code": "55284-4",
          "display": "Blood Pressure"
        } ],
        "text": "Blood Pressure"
      },
      "subject": {
        "reference": "Patient/H-PrescribeAmbulatoryBPMonitoring"
      },
      "encounter": {
        "reference": "Encounter/encounter-H-PrescribeAmbulatoryBPMonitoring-2"
      },
      "effectiveDateTime": "2023-01-21T15:16:21-05:00",
      "note": [ {
        "text": "Office Blood Pressure Reading"
      } ],
      "component": [ {
        "code": {
          "coding": [ {
            "system": "http://loinc.org",
            "code": "8462-4",
            "display": "Diastolic Blood Pressure"
          } ],
          "text": "Diastolic Blood Pressure"
        },
        "valueQuantity": {
          "value": 86.995226014274,
          "unit": "mm[Hg]",
          "system": "http://unitsofmeasure.org",
          "code": "mm[Hg]"
        }
      }, {
        "code": {
          "coding": [ {
            "system": "http://loinc.org",
            "code": "8480-6",
            "display": "Systolic Blood Pressure"
          } ],
          "text": "Systolic Blood Pressure"
        },
        "valueQuantity": {
          "value": 123.4534388828563,
          "unit": "mm[Hg]",
          "system": "http://unitsofmeasure.org",
          "code": "mm[Hg]"
        }
      } ]
    },
    "request": {
      "method": "PUT",
      "url": "Observation/observation-H-PrescribeAmbulatoryBPMonitoring-2"
    }
  }, {
    "resource": {
      "resourceType": "Observation",
      "id": "observation-H-PrescribeAmbulatoryBPMonitoring-3",
      "status": "final",
      "category": [ {
        "coding": [ {
          "system": "http://terminology.hl7.org/CodeSystem/observation-category",
          "code": "vital-signs",
          "display": "vital-signs"
        } ]
      } ],
      "code": {
        "coding": [ {
          "system": "http://loinc.org",
          "code": "55284-4",
          "display": "Blood Pressure"
        } ],
        "text": "Blood Pressure"
      },
      "subject": {
        "reference": "Patient/H-PrescribeAmbulatoryBPMonitoring"
      },
      "encounter": {
        "reference": "Encounter/encounter-H-PrescribeAmbulatoryBPMonitoring-3"
      },
      "effectiveDateTime": "2023-02-18T15:16:21-05:00",
      "note": [ {
        "text": "Office Blood Pressure Reading"
      } ],
      "component": [ {
        "code": {
          "coding": [ {
            "system": "http://loinc.org",
            "code": "8462-4",
            "display": "Diastolic Blood Pressure"
          } ],
          "text": "Diastolic Blood Pressure"
        },
        "valueQuantity": {
          "value": 91.45508952819434,
          "unit": "mm[Hg]",
          "system": "http://unitsofmeasure.org",
          "code": "mm[Hg]"
        }
      }, {
        "code": {
          "coding": [ {
            "system": "http://loinc.org",
            "code": "8480-6",
            "display": "Systolic Blood Pressure"
          } ],
          "text": "Systolic Blood Pressure"
        },
        "valueQuantity": {
          "value": 155.67001870978417,
          "unit": "mm[Hg]",
          "system": "http://unitsofmeasure.org",
          "code": "mm[Hg]"
        }
      } ]
    },
    "request": {
      "method": "PUT",
      "url": "Observation/observation-H-PrescribeAmbulatoryBPMonitoring-3"
    }
  } ]
}