{
  "resourceType": "Bundle",
  "id": "tests-PrescribeABPM-bundle",
  "type": "transaction",
  "entry": [ {
    "resource": {
      "resourceType": "Encounter",
      "id": "encounter-PrescribeABPM-1",
      "status": "finished",
      "class": {
        "system": "http://terminology.hl7.org/CodeSystem/v3-ActCode",
        "version": "2.0.0",
        "code": "AMB",
        "display": "ambulatory"
      },
      "subject": {
        "reference": "Patient/PrescribeABPM"
      },
      "period": {
        "start": "2015-03-25T12:00:00-06:00",
        "end": "2015-03-25T13:00:00-06:00"
      }
    },
    "request": {
      "method": "PUT",
      "url": "Encounter/encounter-PrescribeABPM-1"
    }
  }, {
    "resource": {
      "resourceType": "Encounter",
      "id": "encounter-PrescribeABPM-2",
      "status": "finished",
      "class": {
        "system": "http://terminology.hl7.org/CodeSystem/v3-ActCode",
        "version": "2.0.0",
        "code": "AMB",
        "display": "ambulatory"
      },
      "subject": {
        "reference": "Patient/PrescribeABPM"
      },
      "period": {
        "start": "2014-08-18T12:00:00-06:00",
        "end": "2014-08-18T13:00:00-06:00"
      }
    },
    "request": {
      "method": "PUT",
      "url": "Encounter/encounter-PrescribeABPM-2"
    }
  }, {
    "resource": {
      "resourceType": "Encounter",
      "id": "encounter-PrescribeABPM-3",
      "status": "finished",
      "class": {
        "system": "http://terminology.hl7.org/CodeSystem/v3-ActCode",
        "version": "2.0.0",
        "code": "AMB",
        "display": "ambulatory"
      },
      "subject": {
        "reference": "Patient/PrescribeABPM"
      },
      "period": {
        "start": "2014-11-20T12:00:00-06:00",
        "end": "2014-11-20T13:00:00-06:00"
      }
    },
    "request": {
      "method": "PUT",
      "url": "Encounter/encounter-PrescribeABPM-3"
    }
  }, {
    "resource": {
      "resourceType": "Encounter",
      "id": "encounter-PrescribeABPM-4",
      "status": "finished",
      "class": {
        "system": "http://terminology.hl7.org/CodeSystem/v3-ActCode",
        "version": "2.0.0",
        "code": "AMB",
        "display": "ambulatory"
      },
      "subject": {
        "reference": "Patient/PrescribeABPM"
      },
      "period": {
        "start": "2015-01-06T12:00:00-06:00",
        "end": "2015-01-06T13:00:00-06:00"
      }
    },
    "request": {
      "method": "PUT",
      "url": "Encounter/encounter-PrescribeABPM-4"
    }
  }, {
    "resource": {
      "resourceType": "Observation",
      "id": "observation-PrescribeABPM-1",
      "status": "final",
      "category": [ {
        "coding": [ {
          "system": "http://hl7.org/fhir/observation-category",
          "code": "vital-signs",
          "display": "Vital Signs",
          "userSelected": false
        } ],
        "text": "Vital Signs"
      } ],
      "code": {
        "coding": [ {
          "system": "http://loinc.org",
          "version": "2.68",
          "code": "55284-4",
          "display": "Blood pressure systolic and diastolic"
        } ],
        "text": "Blood pressure systolic and diastolic"
      },
      "subject": {
        "reference": "Patient/PrescribeABPM"
      },
      "encounter": {
        "reference": "Encounter/encounter-PrescribeABPM-1"
      },
      "effectiveDateTime": "2015-03-25T12:20:00-06:00",
      "component": [ {
        "code": {
          "coding": [ {
            "system": "http://loinc.org",
            "code": "8480-6",
            "display": "Systolic blood pressure",
            "userSelected": false
          } ],
          "text": "Systolic blood pressure"
        },
        "valueQuantity": {
          "value": 135,
          "unit": "mmHg",
          "system": "http://unitsofmeasure.org",
          "code": "mm[Hg]"
        }
      }, {
        "code": {
          "coding": [ {
            "system": "http://loinc.org",
            "code": "8462-4",
            "display": "Diastolic blood pressure",
            "userSelected": false
          } ],
          "text": "Diastolic blood pressure"
        },
        "valueQuantity": {
          "value": 82,
          "unit": "mmHg",
          "system": "http://unitsofmeasure.org",
          "code": "mm[Hg]"
        }
      } ]
    },
    "request": {
      "method": "PUT",
      "url": "Observation/observation-PrescribeABPM-1"
    }
  }, {
    "resource": {
      "resourceType": "Observation",
      "id": "observation-PrescribeABPM-2",
      "status": "final",
      "category": [ {
        "coding": [ {
          "system": "http://hl7.org/fhir/observation-category",
          "code": "vital-signs",
          "display": "Vital Signs",
          "userSelected": false
        } ],
        "text": "Vital Signs"
      } ],
      "code": {
        "coding": [ {
          "system": "http://loinc.org",
          "version": "2.68",
          "code": "55284-4",
          "display": "Blood pressure systolic and diastolic"
        } ],
        "text": "Blood pressure systolic and diastolic"
      },
      "subject": {
        "reference": "Patient/PrescribeABPM"
      },
      "encounter": {
        "reference": "Encounter/encounter-PrescribeABPM-2"
      },
      "effectiveDateTime": "2014-08-18T12:20:00-06:00",
      "component": [ {
        "code": {
          "coding": [ {
            "system": "http://loinc.org",
            "code": "8480-6",
            "display": "Systolic blood pressure",
            "userSelected": false
          } ],
          "text": "Systolic blood pressure"
        },
        "valueQuantity": {
          "value": 80,
          "unit": "mmHg",
          "system": "http://unitsofmeasure.org",
          "code": "mm[Hg]"
        }
      }, {
        "code": {
          "coding": [ {
            "system": "http://loinc.org",
            "code": "8462-4",
            "display": "Diastolic blood pressure",
            "userSelected": false
          } ],
          "text": "Diastolic blood pressure"
        },
        "valueQuantity": {
          "value": 55,
          "unit": "mmHg",
          "system": "http://unitsofmeasure.org",
          "code": "mm[Hg]"
        }
      } ]
    },
    "request": {
      "method": "PUT",
      "url": "Observation/observation-PrescribeABPM-2"
    }
  }, {
    "resource": {
      "resourceType": "Observation",
      "id": "observation-PrescribeABPM-3",
      "status": "final",
      "category": [ {
        "coding": [ {
          "system": "http://hl7.org/fhir/observation-category",
          "code": "vital-signs",
          "display": "Vital Signs",
          "userSelected": false
        } ],
        "text": "Vital Signs"
      } ],
      "code": {
        "coding": [ {
          "system": "http://loinc.org",
          "version": "2.68",
          "code": "55284-4",
          "display": "Blood pressure systolic and diastolic"
        } ],
        "text": "Blood pressure systolic and diastolic"
      },
      "subject": {
        "reference": "Patient/PrescribeABPM"
      },
      "encounter": {
        "reference": "Encounter/encounter-PrescribeABPM-3"
      },
      "effectiveDateTime": "2014-11-20T12:20:00-06:00",
      "component": [ {
        "code": {
          "coding": [ {
            "system": "http://loinc.org",
            "code": "8480-6",
            "display": "Systolic blood pressure",
            "userSelected": false
          } ],
          "text": "Systolic blood pressure"
        },
        "valueQuantity": {
          "value": 105,
          "unit": "mmHg",
          "system": "http://unitsofmeasure.org",
          "code": "mm[Hg]"
        }
      }, {
        "code": {
          "coding": [ {
            "system": "http://loinc.org",
            "code": "8462-4",
            "display": "Diastolic blood pressure",
            "userSelected": false
          } ],
          "text": "Diastolic blood pressure"
        },
        "valueQuantity": {
          "value": 70,
          "unit": "mmHg",
          "system": "http://unitsofmeasure.org",
          "code": "mm[Hg]"
        }
      } ]
    },
    "request": {
      "method": "PUT",
      "url": "Observation/observation-PrescribeABPM-3"
    }
  }, {
    "resource": {
      "resourceType": "Observation",
      "id": "observation-PrescribeABPM-4",
      "status": "final",
      "category": [ {
        "coding": [ {
          "system": "http://hl7.org/fhir/observation-category",
          "code": "vital-signs",
          "display": "Vital Signs",
          "userSelected": false
        } ],
        "text": "Vital Signs"
      } ],
      "code": {
        "coding": [ {
          "system": "http://loinc.org",
          "version": "2.68",
          "code": "55284-4",
          "display": "Blood pressure systolic and diastolic"
        } ],
        "text": "Blood pressure systolic and diastolic"
      },
      "subject": {
        "reference": "Patient/PrescribeABPM"
      },
      "encounter": {
        "reference": "Encounter/encounter-PrescribeABPM-4"
      },
      "effectiveDateTime": "2015-01-06T12:20:00-06:00",
      "component": [ {
        "code": {
          "coding": [ {
            "system": "http://loinc.org",
            "code": "8480-6",
            "display": "Systolic blood pressure",
            "userSelected": false
          } ],
          "text": "Systolic blood pressure"
        },
        "valueQuantity": {
          "value": 120,
          "unit": "mmHg",
          "system": "http://unitsofmeasure.org",
          "code": "mm[Hg]"
        }
      }, {
        "code": {
          "coding": [ {
            "system": "http://loinc.org",
            "code": "8462-4",
            "display": "Diastolic blood pressure",
            "userSelected": false
          } ],
          "text": "Diastolic blood pressure"
        },
        "valueQuantity": {
          "value": 80,
          "unit": "mmHg",
          "system": "http://unitsofmeasure.org",
          "code": "mm[Hg]"
        }
      } ]
    },
    "request": {
      "method": "PUT",
      "url": "Observation/observation-PrescribeABPM-4"
    }
  }, {
    "resource": {
      "resourceType": "Patient",
      "id": "PrescribeABPM",
      "active": true,
      "name": [ {
        "text": "PrescribeABPM Patient",
        "family": "Patient",
        "given": [ "PrescribeABPM" ]
      } ],
      "gender": "female",
      "birthDate": "1982-05-01"
    },
    "request": {
      "method": "PUT",
      "url": "Patient/PrescribeABPM"
    }
  } ]
}