{
  "resourceType": "Bundle",
  "id": "tests-H-PrescribeHBPABPMonitoring-bundle",
  "type": "transaction",
  "entry": [ {
    "resource": {
      "resourceType": "Encounter",
      "id": "encounter-H-PrescribeHBPABPMonitoring-1",
      "status": "finished",
      "class": {
        "system": "http://terminology.hl7.org/CodeSystem/v3-ActCode",
        "code": "AMB"
      },
      "type": [ {
        "coding": [ {
          "system": "http://snomed.info/sct",
          "code": "162673000",
          "display": "General examination of patient (procedure)"
        } ],
        "text": "General examination of patient (procedure)"
      } ],
      "subject": {
        "reference": "Patient/H-PrescribeHBPABPMonitoring"
      },
      "period": {
        "start": "2021-01-26T00:00:00-04:00",
        "end": "2021-01-26T23:59:59-04:00"
      }
    },
    "request": {
      "method": "PUT",
      "url": "Encounter/encounter-H-PrescribeHBPABPMonitoring-1"
    }
  }, {
    "resource": {
      "resourceType": "Encounter",
      "id": "encounter-H-PrescribeHBPABPMonitoring-2",
      "status": "finished",
      "class": {
        "system": "http://terminology.hl7.org/CodeSystem/v3-ActCode",
        "code": "AMB"
      },
      "type": [ {
        "coding": [ {
          "system": "http://snomed.info/sct",
          "code": "162673000",
          "display": "General examination of patient (procedure)"
        } ],
        "text": "General examination of patient (procedure)"
      } ],
      "subject": {
        "reference": "Patient/H-PrescribeHBPABPMonitoring"
      },
      "period": {
        "start": "2021-02-26T00:00:00-04:00",
        "end": "2021-02-26T23:59:59-04:00"
      }
    },
    "request": {
      "method": "PUT",
      "url": "Encounter/encounter-H-PrescribeHBPABPMonitoring-2"
    }
  }, {
    "resource": {
      "resourceType": "Encounter",
      "id": "encounter-H-PrescribeHBPABPMonitoring-3",
      "status": "finished",
      "class": {
        "system": "http://terminology.hl7.org/CodeSystem/v3-ActCode",
        "code": "AMB"
      },
      "type": [ {
        "coding": [ {
          "system": "http://snomed.info/sct",
          "code": "162673000",
          "display": "General examination of patient (procedure)"
        } ],
        "text": "General examination of patient (procedure)"
      } ],
      "subject": {
        "reference": "Patient/H-PrescribeHBPABPMonitoring"
      },
      "period": {
        "start": "2021-03-26T00:00:00-04:00",
        "end": "2021-03-26T23:59:59-04:00"
      }
    },
    "request": {
      "method": "PUT",
      "url": "Encounter/encounter-H-PrescribeHBPABPMonitoring-3"
    }
  }, {
    "resource": {
      "resourceType": "Encounter",
      "id": "encounter-H-PrescribeHBPABPMonitoring-4",
      "status": "finished",
      "class": {
        "system": "http://terminology.hl7.org/CodeSystem/v3-ActCode",
        "code": "AMB"
      },
      "type": [ {
        "coding": [ {
          "system": "http://snomed.info/sct",
          "code": "162673000",
          "display": "General examination of patient (procedure)"
        } ],
        "text": "General examination of patient (procedure)"
      } ],
      "subject": {
        "reference": "Patient/H-PrescribeHBPABPMonitoring"
      },
      "period": {
        "start": "2021-04-26T00:00:00-04:00",
        "end": "2021-04-26T23:59:59-04:00"
      }
    },
    "request": {
      "method": "PUT",
      "url": "Encounter/encounter-H-PrescribeHBPABPMonitoring-4"
    }
  }, {
    "resource": {
      "resourceType": "Observation",
      "id": "observation-H-PrescribeHBPABPMonitoring-1",
      "status": "final",
      "category": [ {
        "coding": [ {
          "system": "http://terminology.hl7.org/CodeSystem/observation-category",
          "code": "vital-signs",
          "display": "vital-signs"
        } ]
      } ],
      "code": {
        "coding": [ {
          "system": "http://loinc.org",
          "code": "55284-4",
          "display": "Blood Pressure"
        } ],
        "text": "Blood Pressure"
      },
      "subject": {
        "reference": "Patient/H-PrescribeHBPABPMonitoring"
      },
      "encounter": {
        "reference": "Encounter/encounter-H-PrescribeHBPABPMonitoring-1"
      },
      "effectiveDateTime": "2021-01-26T15:16:21-05:00",
      "note": [ {
        "text": "Office Blood Pressure Reading"
      } ],
      "component": [ {
        "code": {
          "coding": [ {
            "system": "http://loinc.org",
            "code": "8462-4",
            "display": "Diastolic Blood Pressure"
          } ],
          "text": "Diastolic Blood Pressure"
        },
        "valueQuantity": {
          "value": 82.9349105113392,
          "unit": "mm[Hg]",
          "system": "http://unitsofmeasure.org",
          "code": "mm[Hg]"
        }
      }, {
        "code": {
          "coding": [ {
            "system": "http://loinc.org",
            "code": "8480-6",
            "display": "Systolic Blood Pressure"
          } ],
          "text": "Systolic Blood Pressure"
        },
        "valueQuantity": {
          "value": 134.53332100989888,
          "unit": "mm[Hg]",
          "system": "http://unitsofmeasure.org",
          "code": "mm[Hg]"
        }
      } ]
    },
    "request": {
      "method": "PUT",
      "url": "Observation/observation-H-PrescribeHBPABPMonitoring-1"
    }
  }, {
    "resource": {
      "resourceType": "Observation",
      "id": "observation-H-PrescribeHBPABPMonitoring-2",
      "status": "final",
      "category": [ {
        "coding": [ {
          "system": "http://terminology.hl7.org/CodeSystem/observation-category",
          "code": "vital-signs",
          "display": "vital-signs"
        } ]
      } ],
      "code": {
        "coding": [ {
          "system": "http://loinc.org",
          "code": "55284-4",
          "display": "Blood Pressure"
        } ],
        "text": "Blood Pressure"
      },
      "subject": {
        "reference": "Patient/H-PrescribeHBPABPMonitoring"
      },
      "encounter": {
        "reference": "Encounter/encounter-H-PrescribeHBPABPMonitoring-2"
      },
      "effectiveDateTime": "2021-02-26T15:16:21-05:00",
      "note": [ {
        "text": "Office Blood Pressure Reading"
      } ],
      "component": [ {
        "code": {
          "coding": [ {
            "system": "http://loinc.org",
            "code": "8462-4",
            "display": "Diastolic Blood Pressure"
          } ],
          "text": "Diastolic Blood Pressure"
        },
        "valueQuantity": {
          "value": 83.995226014274,
          "unit": "mm[Hg]",
          "system": "http://unitsofmeasure.org",
          "code": "mm[Hg]"
        }
      }, {
        "code": {
          "coding": [ {
            "system": "http://loinc.org",
            "code": "8480-6",
            "display": "Systolic Blood Pressure"
          } ],
          "text": "Systolic Blood Pressure"
        },
        "valueQuantity": {
          "value": 131.4534388828563,
          "unit": "mm[Hg]",
          "system": "http://unitsofmeasure.org",
          "code": "mm[Hg]"
        }
      } ]
    },
    "request": {
      "method": "PUT",
      "url": "Observation/observation-H-PrescribeHBPABPMonitoring-2"
    }
  }, {
    "resource": {
      "resourceType": "Observation",
      "id": "observation-H-PrescribeHBPABPMonitoring-3",
      "status": "final",
      "category": [ {
        "coding": [ {
          "system": "http://terminology.hl7.org/CodeSystem/observation-category",
          "code": "vital-signs",
          "display": "vital-signs"
        } ]
      } ],
      "code": {
        "coding": [ {
          "system": "http://loinc.org",
          "code": "55284-4",
          "display": "Blood Pressure"
        } ],
        "text": "Blood Pressure"
      },
      "subject": {
        "reference": "Patient/H-PrescribeHBPABPMonitoring"
      },
      "encounter": {
        "reference": "Encounter/encounter-H-PrescribeHBPABPMonitoring-3"
      },
      "effectiveDateTime": "2021-03-26T15:16:21-05:00",
      "note": [ {
        "text": "Office Blood Pressure Reading"
      } ],
      "component": [ {
        "code": {
          "coding": [ {
            "system": "http://loinc.org",
            "code": "8462-4",
            "display": "Diastolic Blood Pressure"
          } ],
          "text": "Diastolic Blood Pressure"
        },
        "valueQuantity": {
          "value": 88.45508952819434,
          "unit": "mm[Hg]",
          "system": "http://unitsofmeasure.org",
          "code": "mm[Hg]"
        }
      }, {
        "code": {
          "coding": [ {
            "system": "http://loinc.org",
            "code": "8480-6",
            "display": "Systolic Blood Pressure"
          } ],
          "text": "Systolic Blood Pressure"
        },
        "valueQuantity": {
          "value": 137.67001870978417,
          "unit": "mm[Hg]",
          "system": "http://unitsofmeasure.org",
          "code": "mm[Hg]"
        }
      } ]
    },
    "request": {
      "method": "PUT",
      "url": "Observation/observation-H-PrescribeHBPABPMonitoring-3"
    }
  }, {
    "resource": {
      "resourceType": "Observation",
      "id": "observation-H-PrescribeHBPABPMonitoring-4",
      "status": "final",
      "category": [ {
        "coding": [ {
          "system": "http://terminology.hl7.org/CodeSystem/observation-category",
          "code": "vital-signs",
          "display": "vital-signs"
        } ]
      } ],
      "code": {
        "coding": [ {
          "system": "http://loinc.org",
          "code": "55284-4",
          "display": "Blood Pressure"
        } ],
        "text": "Blood Pressure"
      },
      "subject": {
        "reference": "Patient/H-PrescribeHBPABPMonitoring"
      },
      "encounter": {
        "reference": "Encounter/encounter-H-PrescribeHBPABPMonitoring-4"
      },
      "effectiveDateTime": "2021-04-26T15:16:21-05:00",
      "note": [ {
        "text": "Office Blood Pressure Reading"
      } ],
      "component": [ {
        "code": {
          "coding": [ {
            "system": "http://loinc.org",
            "code": "8462-4",
            "display": "Diastolic Blood Pressure"
          } ],
          "text": "Diastolic Blood Pressure"
        },
        "valueQuantity": {
          "value": 82.52660352979804,
          "unit": "mm[Hg]",
          "system": "http://unitsofmeasure.org",
          "code": "mm[Hg]"
        }
      }, {
        "code": {
          "coding": [ {
            "system": "http://loinc.org",
            "code": "8480-6",
            "display": "Systolic Blood Pressure"
          } ],
          "text": "Systolic Blood Pressure"
        },
        "valueQuantity": {
          "value": 131.65064054117963,
          "unit": "mm[Hg]",
          "system": "http://unitsofmeasure.org",
          "code": "mm[Hg]"
        }
      } ]
    },
    "request": {
      "method": "PUT",
      "url": "Observation/observation-H-PrescribeHBPABPMonitoring-4"
    }
  }, {
    "resource": {
      "resourceType": "Observation",
      "id": "observation-H-PrescribeHBPABPMonitoring-5",
      "extension": [ {
        "url": "http://hl7.org/fhir/us/vitals/StructureDefinition/MeasurementSettingExt",
        "valueCoding": {
          "system": "http://snomed.info/sct",
          "code": "264362003"
        }
      } ],
      "status": "final",
      "category": [ {
        "coding": [ {
          "system": "http://terminology.hl7.org/CodeSystem/observation-category",
          "code": "vital-signs",
          "display": "vital-signs"
        } ]
      } ],
      "code": {
        "coding": [ {
          "system": "http://loinc.org",
          "code": "55284-4",
          "display": "Blood Pressure"
        } ],
        "text": "Blood Pressure"
      },
      "subject": {
        "reference": "Patient/H-PrescribeHBPABPMonitoring"
      },
      "effectiveDateTime": "2021-05-26T15:16:21-05:00",
      "note": [ {
        "text": "Home Blood Pressure Reading"
      } ],
      "component": [ {
        "code": {
          "coding": [ {
            "system": "http://loinc.org",
            "code": "8462-4",
            "display": "Diastolic Blood Pressure"
          } ],
          "text": "Diastolic Blood Pressure"
        },
        "valueQuantity": {
          "value": 70.52660352979804,
          "unit": "mm[Hg]",
          "system": "http://unitsofmeasure.org",
          "code": "mm[Hg]"
        }
      }, {
        "code": {
          "coding": [ {
            "system": "http://loinc.org",
            "code": "8480-6",
            "display": "Systolic Blood Pressure"
          } ],
          "text": "Systolic Blood Pressure"
        },
        "valueQuantity": {
          "value": 130.65064054117963,
          "unit": "mm[Hg]",
          "system": "http://unitsofmeasure.org",
          "code": "mm[Hg]"
        }
      } ]
    },
    "request": {
      "method": "PUT",
      "url": "Observation/observation-H-PrescribeHBPABPMonitoring-5"
    }
  }, {
    "resource": {
      "resourceType": "Observation",
      "id": "observation-H-PrescribeHBPABPMonitoring-6",
      "extension": [ {
        "url": "http://hl7.org/fhir/us/vitals/StructureDefinition/MeasurementSettingExt",
        "valueCoding": {
          "system": "http://snomed.info/sct",
          "code": "264362003"
        }
      } ],
      "status": "final",
      "category": [ {
        "coding": [ {
          "system": "http://terminology.hl7.org/CodeSystem/observation-category",
          "code": "vital-signs",
          "display": "vital-signs"
        } ]
      } ],
      "code": {
        "coding": [ {
          "system": "http://loinc.org",
          "code": "55284-4",
          "display": "Blood Pressure"
        } ],
        "text": "Blood Pressure"
      },
      "subject": {
        "reference": "Patient/H-PrescribeHBPABPMonitoring"
      },
      "effectiveDateTime": "2021-01-01T15:16:21-05:00",
      "note": [ {
        "text": "Home Blood Pressure Reading"
      } ],
      "component": [ {
        "code": {
          "coding": [ {
            "system": "http://loinc.org",
            "code": "8462-4",
            "display": "Diastolic Blood Pressure"
          } ],
          "text": "Diastolic Blood Pressure"
        },
        "valueQuantity": {
          "value": 70.52660352979804,
          "unit": "mm[Hg]",
          "system": "http://unitsofmeasure.org",
          "code": "mm[Hg]"
        }
      }, {
        "code": {
          "coding": [ {
            "system": "http://loinc.org",
            "code": "8480-6",
            "display": "Systolic Blood Pressure"
          } ],
          "text": "Systolic Blood Pressure"
        },
        "valueQuantity": {
          "value": 112.65064054117963,
          "unit": "mm[Hg]",
          "system": "http://unitsofmeasure.org",
          "code": "mm[Hg]"
        }
      } ]
    },
    "request": {
      "method": "PUT",
      "url": "Observation/observation-H-PrescribeHBPABPMonitoring-6"
    }
  }, {
    "resource": {
      "resourceType": "Patient",
      "id": "H-PrescribeHBPABPMonitoring",
      "active": true,
      "name": [ {
        "text": "Prescribe HBP or ABP Monitoring",
        "family": "HBPABPMonitoring",
        "given": [ "Prescribe" ]
      } ],
      "gender": "male",
      "birthDate": "2000-07-02"
    },
    "request": {
      "method": "PUT",
      "url": "Patient/H-PrescribeHBPABPMonitoring"
    }
  } ]
}