{
  "hookInstance": "test",
  "fhirServer": "https://api.logicahealth.org/htnu18r42/open",
  "hook": "patient-view",
  "applyCql": false,
  "context": {
    "userId": "Practitioner/example",
    "patientId": "H-NoFurtherAction"
  },
  "prefetch": {
    "item1": {
      "response": {
        "status": "200 OK"
      },
      "resource": {
        "resourceType": "Bundle",
        "type": "transaction",
        "entry": [
          {
            "resource": {
              "resourceType": "Encounter",
              "id": "encounter-H-NoFurtherAction-1",
              "status": "finished",
              "class": {
                "system": "http://terminology.hl7.org/CodeSystem/v3-ActCode",
                "code": "AMB"
              },
              "type": [
                {
                  "coding": [
                    {
                      "system": "http://snomed.info/sct",
                      "code": "162673000",
                      "display": "General examination of patient (procedure)"
                    }
                  ],
                  "text": "General examination of patient (procedure)"
                }
              ],
              "subject": {
                "reference": "Patient/H-NoFurtherAction"
              },
              "period": {
                "start": "2021-01-26T00:00:00-04:00",
                "end": "2021-01-26T23:59:59-04:00"
              }
            },
            "request": {
              "method": "PUT",
              "url": "request-url"
            }
          },
          {
            "resource": {
              "resourceType": "Encounter",
              "id": "encounter-H-NoFurtherAction-3",
              "status": "finished",
              "class": {
                "system": "http://terminology.hl7.org/CodeSystem/v3-ActCode",
                "code": "AMB"
              },
              "type": [
                {
                  "coding": [
                    {
                      "system": "http://snomed.info/sct",
                      "code": "162673000",
                      "display": "General examination of patient (procedure)"
                    }
                  ],
                  "text": "General examination of patient (procedure)"
                }
              ],
              "subject": {
                "reference": "Patient/H-NoFurtherAction"
              },
              "period": {
                "start": "2021-03-26T00:00:00-04:00",
                "end": "2021-03-26T23:59:59-04:00"
              }
            },
            "request": {
              "method": "PUT",
              "url": "request-url"
            }
          },
          {
            "resource": {
              "resourceType": "Encounter",
              "id": "encounter-H-NoFurtherAction-2",
              "status": "finished",
              "class": {
                "system": "http://terminology.hl7.org/CodeSystem/v3-ActCode",
                "code": "AMB"
              },
              "type": [
                {
                  "coding": [
                    {
                      "system": "http://snomed.info/sct",
                      "code": "162673000",
                      "display": "General examination of patient (procedure)"
                    }
                  ],
                  "text": "General examination of patient (procedure)"
                }
              ],
              "subject": {
                "reference": "Patient/H-NoFurtherAction"
              },
              "period": {
                "start": "2021-02-26T00:00:00-04:00",
                "end": "2021-02-26T23:59:59-04:00"
              }
            },
            "request": {
              "method": "PUT",
              "url": "request-url"
            }
          },
          {
            "resource": {
              "resourceType": "Encounter",
              "id": "encounter-H-NoFurtherAction-4",
              "status": "finished",
              "class": {
                "system": "http://terminology.hl7.org/CodeSystem/v3-ActCode",
                "code": "AMB"
              },
              "type": [
                {
                  "coding": [
                    {
                      "system": "http://snomed.info/sct",
                      "code": "162673000",
                      "display": "General examination of patient (procedure)"
                    }
                  ],
                  "text": "General examination of patient (procedure)"
                }
              ],
              "subject": {
                "reference": "Patient/H-NoFurtherAction"
              },
              "period": {
                "start": "2021-04-26T00:00:00-04:00",
                "end": "2021-04-26T23:59:59-04:00"
              }
            },
            "request": {
              "method": "PUT",
              "url": "request-url"
            }
          },
          {
            "resource": {
              "resourceType": "Patient",
              "id": "H-NoFurtherAction",
              "active": true,
              "name": [
                {
                  "text": "No Further Action",
                  "family": "FurtherAction",
                  "given": [
                    "No"
                  ]
                }
              ],
              "gender": "female",
              "birthDate": "1961-10-18"
            },
            "request": {
              "method": "PUT",
              "url": "request-url"
            }
          },
          {
            "resource": {
              "resourceType": "Observation",
              "id": "observation-H-NoFurtherAction-2",
              "status": "final",
              "note": [
                {
                  "text": "Office Blood Pressure Reading"
                }
              ],
              "category": [
                {
                  "coding": [
                    {
                      "system": "http://terminology.hl7.org/CodeSystem/observation-category",
                      "code": "vital-signs",
                      "display": "vital-signs"
                    }
                  ]
                }
              ],
              "code": {
                "coding": [
                  {
                    "system": "http://loinc.org",
                    "code": "55284-4",
                    "display": "Blood Pressure"
                  }
                ],
                "text": "Blood Pressure"
              },
              "subject": {
                "reference": "Patient/H-NoFurtherAction"
              },
              "encounter": {
                "reference": "Encounter/encounter-H-NoFurtherAction-2"
              },
              "effectiveDateTime": "2021-02-26T15:16:21-05:00",
              "component": [
                {
                  "code": {
                    "coding": [
                      {
                        "system": "http://loinc.org",
                        "code": "8462-4",
                        "display": "Diastolic Blood Pressure"
                      }
                    ],
                    "text": "Diastolic Blood Pressure"
                  },
                  "valueQuantity": {
                    "value": 78.995226014274,
                    "unit": "mm[Hg]",
                    "system": "http://unitsofmeasure.org",
                    "code": "mm[Hg]"
                  }
                },
                {
                  "code": {
                    "coding": [
                      {
                        "system": "http://loinc.org",
                        "code": "8480-6",
                        "display": "Systolic Blood Pressure"
                      }
                    ],
                    "text": "Systolic Blood Pressure"
                  },
                  "valueQuantity": {
                    "value": 123.4534388828563,
                    "unit": "mm[Hg]",
                    "system": "http://unitsofmeasure.org",
                    "code": "mm[Hg]"
                  }
                }
              ]
            },
            "request": {
              "method": "PUT",
              "url": "request-url"
            }
          },
          {
            "resource": {
              "resourceType": "Observation",
              "id": "observation-H-NoFurtherAction-3",
              "status": "final",
              "note": [
                {
                  "text": "Office Blood Pressure Reading"
                }
              ],
              "category": [
                {
                  "coding": [
                    {
                      "system": "http://terminology.hl7.org/CodeSystem/observation-category",
                      "code": "vital-signs",
                      "display": "vital-signs"
                    }
                  ]
                }
              ],
              "code": {
                "coding": [
                  {
                    "system": "http://loinc.org",
                    "code": "55284-4",
                    "display": "Blood Pressure"
                  }
                ],
                "text": "Blood Pressure"
              },
              "subject": {
                "reference": "Patient/H-NoFurtherAction"
              },
              "encounter": {
                "reference": "Encounter/encounter-H-NoFurtherAction-3"
              },
              "effectiveDateTime": "2021-03-26T15:16:21-05:00",
              "component": [
                {
                  "code": {
                    "coding": [
                      {
                        "system": "http://loinc.org",
                        "code": "8462-4",
                        "display": "Diastolic Blood Pressure"
                      }
                    ],
                    "text": "Diastolic Blood Pressure"
                  },
                  "valueQuantity": {
                    "value": 80.45508952819434,
                    "unit": "mm[Hg]",
                    "system": "http://unitsofmeasure.org",
                    "code": "mm[Hg]"
                  }
                },
                {
                  "code": {
                    "coding": [
                      {
                        "system": "http://loinc.org",
                        "code": "8480-6",
                        "display": "Systolic Blood Pressure"
                      }
                    ],
                    "text": "Systolic Blood Pressure"
                  },
                  "valueQuantity": {
                    "value": 130.67001870978416,
                    "unit": "mm[Hg]",
                    "system": "http://unitsofmeasure.org",
                    "code": "mm[Hg]"
                  }
                }
              ]
            },
            "request": {
              "method": "PUT",
              "url": "request-url"
            }
          },
          {
            "resource": {
              "resourceType": "Observation",
              "id": "observation-H-NoFurtherAction-4",
              "status": "final",
              "note": [
                {
                  "text": "Office Blood Pressure Reading"
                }
              ],
              "category": [
                {
                  "coding": [
                    {
                      "system": "http://terminology.hl7.org/CodeSystem/observation-category",
                      "code": "vital-signs",
                      "display": "vital-signs"
                    }
                  ]
                }
              ],
              "code": {
                "coding": [
                  {
                    "system": "http://loinc.org",
                    "code": "55284-4",
                    "display": "Blood Pressure"
                  }
                ],
                "text": "Blood Pressure"
              },
              "subject": {
                "reference": "Patient/H-NoFurtherAction"
              },
              "encounter": {
                "reference": "Encounter/encounter-H-NoFurtherAction-4"
              },
              "effectiveDateTime": "2021-04-26T15:16:21-05:00",
              "component": [
                {
                  "code": {
                    "coding": [
                      {
                        "system": "http://loinc.org",
                        "code": "8462-4",
                        "display": "Diastolic Blood Pressure"
                      }
                    ],
                    "text": "Diastolic Blood Pressure"
                  },
                  "valueQuantity": {
                    "value": 70.52660352979804,
                    "unit": "mm[Hg]",
                    "system": "http://unitsofmeasure.org",
                    "code": "mm[Hg]"
                  }
                },
                {
                  "code": {
                    "coding": [
                      {
                        "system": "http://loinc.org",
                        "code": "8480-6",
                        "display": "Systolic Blood Pressure"
                      }
                    ],
                    "text": "Systolic Blood Pressure"
                  },
                  "valueQuantity": {
                    "value": 114.65064054117963,
                    "unit": "mm[Hg]",
                    "system": "http://unitsofmeasure.org",
                    "code": "mm[Hg]"
                  }
                }
              ]
            },
            "request": {
              "method": "PUT",
              "url": "request-url"
            }
          },
          {
            "resource": {
              "resourceType": "Observation",
              "id": "observation-H-NoFurtherAction-5",
              "status": "final",
              "note": [
                {
                  "text": "Home Blood Pressure Reading"
                }
              ],
              "extension": [
                {
                  "url": "http://hl7.org/fhir/us/vitals/StructureDefinition/MeasurementSettingExt",
                  "valueCoding": {
                    "system": "http://snomed.info/sct",
                    "code": "264362003"
                  }
                }
              ],
              "category": [
                {
                  "coding": [
                    {
                      "system": "http://terminology.hl7.org/CodeSystem/observation-category",
                      "code": "vital-signs",
                      "display": "vital-signs"
                    }
                  ]
                }
              ],
              "code": {
                "coding": [
                  {
                    "system": "http://loinc.org",
                    "code": "55284-4",
                    "display": "Blood Pressure"
                  }
                ],
                "text": "Blood Pressure"
              },
              "subject": {
                "reference": "Patient/H-NoFurtherAction"
              },
              "effectiveDateTime": "2021-05-26T15:16:21-05:00",
              "component": [
                {
                  "code": {
                    "coding": [
                      {
                        "system": "http://loinc.org",
                        "code": "8462-4",
                        "display": "Diastolic Blood Pressure"
                      }
                    ],
                    "text": "Diastolic Blood Pressure"
                  },
                  "valueQuantity": {
                    "value": 68.52660352979804,
                    "unit": "mm[Hg]",
                    "system": "http://unitsofmeasure.org",
                    "code": "mm[Hg]"
                  }
                },
                {
                  "code": {
                    "coding": [
                      {
                        "system": "http://loinc.org",
                        "code": "8480-6",
                        "display": "Systolic Blood Pressure"
                      }
                    ],
                    "text": "Systolic Blood Pressure"
                  },
                  "valueQuantity": {
                    "value": 130.65064054117963,
                    "unit": "mm[Hg]",
                    "system": "http://unitsofmeasure.org",
                    "code": "mm[Hg]"
                  }
                }
              ]
            },
            "request": {
              "method": "PUT",
              "url": "request-url"
            }
          },
          {
            "resource": {
              "resourceType": "Observation",
              "id": "observation-H-NoFurtherAction-6",
              "status": "final",
              "note": [
                {
                  "text": "Home Blood Pressure Reading"
                }
              ],
              "extension": [
                {
                  "url": "http://hl7.org/fhir/us/vitals/StructureDefinition/MeasurementSettingExt",
                  "valueCoding": {
                    "system": "http://snomed.info/sct",
                    "code": "264362003"
                  }
                }
              ],
              "category": [
                {
                  "coding": [
                    {
                      "system": "http://terminology.hl7.org/CodeSystem/observation-category",
                      "code": "vital-signs",
                      "display": "vital-signs"
                    }
                  ]
                }
              ],
              "code": {
                "coding": [
                  {
                    "system": "http://loinc.org",
                    "code": "55284-4",
                    "display": "Blood Pressure"
                  }
                ],
                "text": "Blood Pressure"
              },
              "subject": {
                "reference": "Patient/H-NoFurtherAction"
              },
              "effectiveDateTime": "2021-06-26T15:16:21-05:00",
              "component": [
                {
                  "code": {
                    "coding": [
                      {
                        "system": "http://loinc.org",
                        "code": "8462-4",
                        "display": "Diastolic Blood Pressure"
                      }
                    ],
                    "text": "Diastolic Blood Pressure"
                  },
                  "valueQuantity": {
                    "value": 74.52660352979804,
                    "unit": "mm[Hg]",
                    "system": "http://unitsofmeasure.org",
                    "code": "mm[Hg]"
                  }
                },
                {
                  "code": {
                    "coding": [
                      {
                        "system": "http://loinc.org",
                        "code": "8480-6",
                        "display": "Systolic Blood Pressure"
                      }
                    ],
                    "text": "Systolic Blood Pressure"
                  },
                  "valueQuantity": {
                    "value": 112.65064054117963,
                    "unit": "mm[Hg]",
                    "system": "http://unitsofmeasure.org",
                    "code": "mm[Hg]"
                  }
                }
              ]
            },
            "request": {
              "method": "PUT",
              "url": "request-url"
            }
          },
          {
            "resource": {
              "resourceType": "Observation",
              "id": "observation-H-NoFurtherAction-1",
              "status": "final",
              "note": [
                {
                  "text": "Office Blood Pressure Reading"
                }
              ],
              "category": [
                {
                  "coding": [
                    {
                      "system": "http://terminology.hl7.org/CodeSystem/observation-category",
                      "code": "vital-signs",
                      "display": "vital-signs"
                    }
                  ]
                }
              ],
              "code": {
                "coding": [
                  {
                    "system": "http://loinc.org",
                    "code": "55284-4",
                    "display": "Blood Pressure"
                  }
                ],
                "text": "Blood Pressure"
              },
              "subject": {
                "reference": "Patient/H-NoFurtherAction"
              },
              "encounter": {
                "reference": "Encounter/encounter-H-NoFurtherAction-1"
              },
              "effectiveDateTime": "2021-01-26T15:16:21-05:00",
              "component": [
                {
                  "code": {
                    "coding": [
                      {
                        "system": "http://loinc.org",
                        "code": "8462-4",
                        "display": "Diastolic Blood Pressure"
                      }
                    ],
                    "text": "Diastolic Blood Pressure"
                  },
                  "valueQuantity": {
                    "value": 68.9349105113392,
                    "unit": "mm[Hg]",
                    "system": "http://unitsofmeasure.org",
                    "code": "mm[Hg]"
                  }
                },
                {
                  "code": {
                    "coding": [
                      {
                        "system": "http://loinc.org",
                        "code": "8480-6",
                        "display": "Systolic Blood Pressure"
                      }
                    ],
                    "text": "Systolic Blood Pressure"
                  },
                  "valueQuantity": {
                    "value": 121.53332100989888,
                    "unit": "mm[Hg]",
                    "system": "http://unitsofmeasure.org",
                    "code": "mm[Hg]"
                  }
                }
              ]
            },
            "request": {
              "method": "PUT",
              "url": "request-url"
            }
          }
        ]
      }
    }
  }
}