{
  "hookInstance": "test",
  "fhirServer": "http://localhost:8080/cqf-ruler-r4/fhir",
  "hook": "patient-view",
  "applyCql": true,
  "context": {
    "userId": "Practitioner/example",
    "patientId": "M-IncludeNormalBPWithGoal"
  },
  "prefetch": {
    "item1": {
      "response": {
        "status": "200 OK"
      },
      "resource": {
        "resourceType": "Bundle",
        "type": "transaction",
        "entry": [
          {
            "resource": {
              "resourceType": "Encounter",
              "id": "encounter-M-IncludeNormalBPWithGoal-1",
              "status": "finished",
              "class": {
                "system": "http://terminology.hl7.org/CodeSystem/v3-ActCode",
                "code": "AMB"
              },
              "type": [
                {
                  "coding": [
                    {
                      "system": "http://snomed.info/sct",
                      "code": "162673000",
                      "display": "General examination of patient (procedure)"
                    }
                  ],
                  "text": "General examination of patient (procedure)"
                }
              ],
              "subject": {
                "reference": "Patient/M-IncludeNormalBPWithGoal"
              },
              "period": {
                "start": "2019-01-26T00:00:00-04:00",
                "end": "2019-01-26T23:59:59-04:00"
              }
            },
            "request": {
              "method": "PUT",
              "url": "request-url"
            }
          },
          {
            "resource": {
              "resourceType": "Encounter",
              "id": "encounter-M-IncludeNormalBPWithGoal-3",
              "status": "finished",
              "class": {
                "system": "http://terminology.hl7.org/CodeSystem/v3-ActCode",
                "code": "AMB"
              },
              "type": [
                {
                  "coding": [
                    {
                      "system": "http://snomed.info/sct",
                      "code": "162673000",
                      "display": "General examination of patient (procedure)"
                    }
                  ],
                  "text": "General examination of patient (procedure)"
                }
              ],
              "subject": {
                "reference": "Patient/M-IncludeNormalBPWithGoal"
              },
              "period": {
                "start": "2019-05-26T00:00:00-04:00",
                "end": "2019-05-26T23:59:59-04:00"
              }
            },
            "request": {
              "method": "PUT",
              "url": "request-url"
            }
          },
          {
            "resource": {
              "resourceType": "Encounter",
              "id": "encounter-M-IncludeNormalBPWithGoal-2",
              "status": "finished",
              "class": {
                "system": "http://terminology.hl7.org/CodeSystem/v3-ActCode",
                "code": "AMB"
              },
              "type": [
                {
                  "coding": [
                    {
                      "system": "http://snomed.info/sct",
                      "code": "162673000",
                      "display": "General examination of patient (procedure)"
                    }
                  ],
                  "text": "General examination of patient (procedure)"
                }
              ],
              "subject": {
                "reference": "Patient/M-IncludeNormalBPWithGoal"
              },
              "period": {
                "start": "2019-03-26T00:00:00-04:00",
                "end": "2019-03-26T23:59:59-04:00"
              }
            },
            "request": {
              "method": "PUT",
              "url": "request-url"
            }
          },
          {
            "resource": {
              "resourceType": "Encounter",
              "id": "encounter-M-IncludeNormalBPWithGoal-4",
              "status": "finished",
              "class": {
                "system": "http://terminology.hl7.org/CodeSystem/v3-ActCode",
                "code": "AMB"
              },
              "type": [
                {
                  "coding": [
                    {
                      "system": "http://snomed.info/sct",
                      "code": "162673000",
                      "display": "General examination of patient (procedure)"
                    }
                  ],
                  "text": "General examination of patient (procedure)"
                }
              ],
              "subject": {
                "reference": "Patient/M-IncludeNormalBPWithGoal"
              },
              "period": {
                "start": "2019-07-26T00:00:00-04:00",
                "end": "2019-07-26T23:59:59-04:00"
              }
            },
            "request": {
              "method": "PUT",
              "url": "request-url"
            }
          },
          {
            "resource": {
              "resourceType": "Condition",
              "id": "condition-M-IncludeNormalBPWithGoal-1",
              "note": [
                {
                  "text": "Indicates Preexisting Diagnosis of Hypertension"
                }
              ],
              "clinicalStatus": {
                "coding": [
                  {
                    "system": "http://terminology.hl7.org/CodeSystem/condition-clinical",
                    "code": "active"
                  }
                ]
              },
              "verificationStatus": {
                "coding": [
                  {
                    "system": "http://terminology.hl7.org/CodeSystem/condition-ver-status",
                    "code": "confirmed"
                  }
                ]
              },
              "code": {
                "coding": [
                  {
                    "system": "http://snomed.info/sct",
                    "code": "59621000",
                    "display": "Hypertension"
                  }
                ],
                "text": "Hypertension"
              },
              "subject": {
                "reference": "Patient/M-IncludeNormalBPWithGoal"
              },
              "onsetDateTime": "2015-01-28T15:16:21-05:00",
              "recordedDate": "2015-01-28T15:16:21-05:00"
            },
            "request": {
              "method": "PUT",
              "url": "request-url"
            }
          },
          {
            "resource": {
              "resourceType": "Patient",
              "id": "M-IncludeNormalBPWithGoal",
              "active": true,
              "name": [
                {
                  "text": "Include Normal BP With Goal",
                  "family": "NormalBPWithGoal",
                  "given": [
                    "Include"
                  ]
                }
              ],
              "gender": "male",
              "birthDate": "1972-08-29"
            },
            "request": {
              "method": "PUT",
              "url": "request-url"
            }
          },
          {
            "resource": {
              "resourceType": "Observation",
              "id": "observation-M-IncludeNormalBPWithGoal-2",
              "status": "final",
              "note": [
                {
                  "text": "Office Blood Pressure Reading"
                }
              ],
              "category": [
                {
                  "coding": [
                    {
                      "system": "http://terminology.hl7.org/CodeSystem/observation-category",
                      "code": "vital-signs",
                      "display": "vital-signs"
                    }
                  ]
                }
              ],
              "code": {
                "coding": [
                  {
                    "system": "http://loinc.org",
                    "code": "55284-4",
                    "display": "Blood Pressure"
                  }
                ],
                "text": "Blood Pressure"
              },
              "subject": {
                "reference": "Patient/M-IncludeNormalBPWithGoal"
              },
              "encounter": {
                "reference": "Encounter/encounter-M-IncludeNormalBPWithGoal-2"
              },
              "effectiveDateTime": "2019-03-26T15:16:21-05:00",
              "component": [
                {
                  "code": {
                    "coding": [
                      {
                        "system": "http://loinc.org",
                        "code": "8462-4",
                        "display": "Diastolic Blood Pressure"
                      }
                    ],
                    "text": "Diastolic Blood Pressure"
                  },
                  "valueQuantity": {
                    "value": 77.995226014274,
                    "unit": "mm[Hg]",
                    "system": "http://unitsofmeasure.org",
                    "code": "mm[Hg]"
                  }
                },
                {
                  "code": {
                    "coding": [
                      {
                        "system": "http://loinc.org",
                        "code": "8480-6",
                        "display": "Systolic Blood Pressure"
                      }
                    ],
                    "text": "Systolic Blood Pressure"
                  },
                  "valueQuantity": {
                    "value": 127.4534388828563,
                    "unit": "mm[Hg]",
                    "system": "http://unitsofmeasure.org",
                    "code": "mm[Hg]"
                  }
                }
              ]
            },
            "request": {
              "method": "PUT",
              "url": "request-url"
            }
          },
          {
            "resource": {
              "resourceType": "Observation",
              "id": "observation-M-IncludeNormalBPWithGoal-3",
              "status": "final",
              "note": [
                {
                  "text": "Office Blood Pressure Reading"
                }
              ],
              "category": [
                {
                  "coding": [
                    {
                      "system": "http://terminology.hl7.org/CodeSystem/observation-category",
                      "code": "vital-signs",
                      "display": "vital-signs"
                    }
                  ]
                }
              ],
              "code": {
                "coding": [
                  {
                    "system": "http://loinc.org",
                    "code": "55284-4",
                    "display": "Blood Pressure"
                  }
                ],
                "text": "Blood Pressure"
              },
              "subject": {
                "reference": "Patient/M-IncludeNormalBPWithGoal"
              },
              "encounter": {
                "reference": "Encounter/encounter-M-IncludeNormalBPWithGoal-3"
              },
              "effectiveDateTime": "2019-05-26T15:16:21-05:00",
              "component": [
                {
                  "code": {
                    "coding": [
                      {
                        "system": "http://loinc.org",
                        "code": "8462-4",
                        "display": "Diastolic Blood Pressure"
                      }
                    ],
                    "text": "Diastolic Blood Pressure"
                  },
                  "valueQuantity": {
                    "value": 82.45508952819434,
                    "unit": "mm[Hg]",
                    "system": "http://unitsofmeasure.org",
                    "code": "mm[Hg]"
                  }
                },
                {
                  "code": {
                    "coding": [
                      {
                        "system": "http://loinc.org",
                        "code": "8480-6",
                        "display": "Systolic Blood Pressure"
                      }
                    ],
                    "text": "Systolic Blood Pressure"
                  },
                  "valueQuantity": {
                    "value": 130.67001870978416,
                    "unit": "mm[Hg]",
                    "system": "http://unitsofmeasure.org",
                    "code": "mm[Hg]"
                  }
                }
              ]
            },
            "request": {
              "method": "PUT",
              "url": "request-url"
            }
          },
          {
            "resource": {
              "resourceType": "Observation",
              "id": "observation-M-IncludeNormalBPWithGoal-4",
              "status": "final",
              "note": [
                {
                  "text": "Office Blood Pressure Reading"
                }
              ],
              "category": [
                {
                  "coding": [
                    {
                      "system": "http://terminology.hl7.org/CodeSystem/observation-category",
                      "code": "vital-signs",
                      "display": "vital-signs"
                    }
                  ]
                }
              ],
              "code": {
                "coding": [
                  {
                    "system": "http://loinc.org",
                    "code": "55284-4",
                    "display": "Blood Pressure"
                  }
                ],
                "text": "Blood Pressure"
              },
              "subject": {
                "reference": "Patient/M-IncludeNormalBPWithGoal"
              },
              "encounter": {
                "reference": "Encounter/encounter-M-IncludeNormalBPWithGoal-4"
              },
              "effectiveDateTime": "2019-07-26T15:16:21-05:00",
              "component": [
                {
                  "code": {
                    "coding": [
                      {
                        "system": "http://loinc.org",
                        "code": "8462-4",
                        "display": "Diastolic Blood Pressure"
                      }
                    ],
                    "text": "Diastolic Blood Pressure"
                  },
                  "valueQuantity": {
                    "value": 79.52660352979804,
                    "unit": "mm[Hg]",
                    "system": "http://unitsofmeasure.org",
                    "code": "mm[Hg]"
                  }
                },
                {
                  "code": {
                    "coding": [
                      {
                        "system": "http://loinc.org",
                        "code": "8480-6",
                        "display": "Systolic Blood Pressure"
                      }
                    ],
                    "text": "Systolic Blood Pressure"
                  },
                  "valueQuantity": {
                    "value": 130.65064054117963,
                    "unit": "mm[Hg]",
                    "system": "http://unitsofmeasure.org",
                    "code": "mm[Hg]"
                  }
                }
              ]
            },
            "request": {
              "method": "PUT",
              "url": "request-url"
            }
          },
          {
            "resource": {
              "resourceType": "Observation",
              "id": "observation-M-IncludeNormalBPWithGoal-5",
              "status": "final",
              "note": [
                {
                  "text": "Home Blood Pressure Reading (no encounter)"
                }
              ],
              "category": [
                {
                  "coding": [
                    {
                      "system": "http://terminology.hl7.org/CodeSystem/observation-category",
                      "code": "vital-signs",
                      "display": "vital-signs"
                    }
                  ]
                }
              ],
              "code": {
                "coding": [
                  {
                    "system": "http://loinc.org",
                    "code": "55284-4",
                    "display": "Blood Pressure"
                  }
                ],
                "text": "Blood Pressure"
              },
              "subject": {
                "reference": "Patient/M-IncludeNormalBPWithGoal"
              },
              "effectiveDateTime": "2019-09-26T15:16:21-05:00",
              "component": [
                {
                  "code": {
                    "coding": [
                      {
                        "system": "http://loinc.org",
                        "code": "8462-4",
                        "display": "Diastolic Blood Pressure"
                      }
                    ],
                    "text": "Diastolic Blood Pressure"
                  },
                  "valueQuantity": {
                    "value": 81.52660352979804,
                    "unit": "mm[Hg]",
                    "system": "http://unitsofmeasure.org",
                    "code": "mm[Hg]"
                  }
                },
                {
                  "code": {
                    "coding": [
                      {
                        "system": "http://loinc.org",
                        "code": "8480-6",
                        "display": "Systolic Blood Pressure"
                      }
                    ],
                    "text": "Systolic Blood Pressure"
                  },
                  "valueQuantity": {
                    "value": 132.65064054117963,
                    "unit": "mm[Hg]",
                    "system": "http://unitsofmeasure.org",
                    "code": "mm[Hg]"
                  }
                }
              ]
            },
            "request": {
              "method": "PUT",
              "url": "request-url"
            }
          },
          {
            "resource": {
              "resourceType": "Observation",
              "id": "observation-M-IncludeNormalBPWithGoal-6",
              "status": "final",
              "note": [
                {
                  "text": "Home Blood Pressure Reading (no encounter)"
                }
              ],
              "category": [
                {
                  "coding": [
                    {
                      "system": "http://terminology.hl7.org/CodeSystem/observation-category",
                      "code": "vital-signs",
                      "display": "vital-signs"
                    }
                  ]
                }
              ],
              "code": {
                "coding": [
                  {
                    "system": "http://loinc.org",
                    "code": "55284-4",
                    "display": "Blood Pressure"
                  }
                ],
                "text": "Blood Pressure"
              },
              "subject": {
                "reference": "Patient/M-IncludeNormalBPWithGoal"
              },
              "effectiveDateTime": "2019-11-26T15:16:21-05:00",
              "component": [
                {
                  "code": {
                    "coding": [
                      {
                        "system": "http://loinc.org",
                        "code": "8462-4",
                        "display": "Diastolic Blood Pressure"
                      }
                    ],
                    "text": "Diastolic Blood Pressure"
                  },
                  "valueQuantity": {
                    "value": 74.52660352979804,
                    "unit": "mm[Hg]",
                    "system": "http://unitsofmeasure.org",
                    "code": "mm[Hg]"
                  }
                },
                {
                  "code": {
                    "coding": [
                      {
                        "system": "http://loinc.org",
                        "code": "8480-6",
                        "display": "Systolic Blood Pressure"
                      }
                    ],
                    "text": "Systolic Blood Pressure"
                  },
                  "valueQuantity": {
                    "value": 126.65064054117963,
                    "unit": "mm[Hg]",
                    "system": "http://unitsofmeasure.org",
                    "code": "mm[Hg]"
                  }
                }
              ]
            },
            "request": {
              "method": "PUT",
              "url": "request-url"
            }
          },
          {
            "resource": {
              "resourceType": "Observation",
              "id": "observation-M-IncludeNormalBPWithGoal-1",
              "status": "final",
              "note": [
                {
                  "text": "Office Blood Pressure Reading"
                }
              ],
              "category": [
                {
                  "coding": [
                    {
                      "system": "http://terminology.hl7.org/CodeSystem/observation-category",
                      "code": "vital-signs",
                      "display": "vital-signs"
                    }
                  ]
                }
              ],
              "code": {
                "coding": [
                  {
                    "system": "http://loinc.org",
                    "code": "55284-4",
                    "display": "Blood Pressure"
                  }
                ],
                "text": "Blood Pressure"
              },
              "subject": {
                "reference": "Patient/M-IncludeNormalBPWithGoal"
              },
              "encounter": {
                "reference": "Encounter/encounter-M-IncludeNormalBPWithGoal-1"
              },
              "effectiveDateTime": "2019-01-26T15:16:21-05:00",
              "component": [
                {
                  "code": {
                    "coding": [
                      {
                        "system": "http://loinc.org",
                        "code": "8462-4",
                        "display": "Diastolic Blood Pressure"
                      }
                    ],
                    "text": "Diastolic Blood Pressure"
                  },
                  "valueQuantity": {
                    "value": 75.9349105113392,
                    "unit": "mm[Hg]",
                    "system": "http://unitsofmeasure.org",
                    "code": "mm[Hg]"
                  }
                },
                {
                  "code": {
                    "coding": [
                      {
                        "system": "http://loinc.org",
                        "code": "8480-6",
                        "display": "Systolic Blood Pressure"
                      }
                    ],
                    "text": "Systolic Blood Pressure"
                  },
                  "valueQuantity": {
                    "value": 129.53332100989888,
                    "unit": "mm[Hg]",
                    "system": "http://unitsofmeasure.org",
                    "code": "mm[Hg]"
                  }
                }
              ]
            },
            "request": {
              "method": "PUT",
              "url": "request-url"
            }
          },
          {
            "resource": {
              "resourceType": "Goal",
              "id": "goal-M-IncludeNormalBPWithGoal-1",
              "lifecycleStatus": "planned",
              "achievementStatus": {
                "coding": [
                  {
                    "system": "http://terminology.hl7.org/CodeSystem/goal-achievement",
                    "version": "4.0.1",
                    "code": "in-progress",
                    "display": "In Progress"
                  }
                ]
              },
              "startDate": "2020-02-12",
              "description": {
                "text": "Goal of 135/85"
              },
              "subject": {
                "reference": "Patient/M-IncludeNormalBPWithGoal"
              },
              "target": [
                {
                  "measure": {
                    "coding": [
                      {
                        "system": "http://loinc.org",
                        "version": "2.68",
                        "code": "8480-6",
                        "display": "Systolic blood pressure"
                      }
                    ]
                  },
                  "detailQuantity": {
                    "value": 135,
                    "unit": "mmHg",
                    "system": "http://unitsofmeasure.org",
                    "code": "mm[Hg]"
                  }
                },
                {
                  "measure": {
                    "coding": [
                      {
                        "system": "http://loinc.org",
                        "version": "2.68",
                        "code": "8462-4",
                        "display": "Diastolic blood pressure"
                      }
                    ]
                  },
                  "detailQuantity": {
                    "value": 85,
                    "unit": "mmHg",
                    "system": "http://unitsofmeasure.org",
                    "code": "mm[Hg]"
                  }
                }
              ]
            },
            "request": {
              "method": "PUT",
              "url": "request-url"
            }
          }
        ]
      }
    }
  }
}