{
  "resourceType": "Bundle",
  "id": "tests-PrescribeABPM3-bundle",
  "type": "transaction",
  "entry": [ {
    "resource": {
      "resourceType": "Condition",
      "id": "condition-PrescribeABPM3-1",
      "clinicalStatus": {
        "coding": [ {
          "system": "http://terminology.hl7.org/CodeSystem/condition-clinical",
          "version": "0.5.0",
          "code": "active",
          "display": "Active"
        } ]
      },
      "verificationStatus": {
        "coding": [ {
          "system": "http://terminology.hl7.org/CodeSystem/condition-ver-status",
          "version": "0.5.0",
          "code": "confirmed",
          "display": "Confirmed"
        } ]
      },
      "code": {
        "coding": [ {
          "system": "http://snomed.info/sct",
          "version": "2020-09",
          "code": "703355003",
          "display": "Pulmonary hypertension due to vasculitis (disorder)"
        } ]
      },
      "subject": {
        "reference": "Patient/PrescribeABPM3"
      },
      "onsetDateTime": "2013-03-14T11:01:32-07:00"
    },
    "request": {
      "method": "PUT",
      "url": "Condition/condition-PrescribeABPM3-1"
    }
  }, {
    "resource": {
      "resourceType": "Encounter",
      "id": "encounter-PrescribeABPM3-1",
      "status": "finished",
      "class": {
        "system": "http://terminology.hl7.org/CodeSystem/v3-ActCode",
        "version": "2.0.0",
        "code": "AMB",
        "display": "ambulatory"
      },
      "subject": {
        "reference": "Patient/PrescribeABPM3"
      },
      "period": {
        "start": "2015-03-25T12:00:00-06:00",
        "end": "2015-03-25T13:00:00-06:00"
      }
    },
    "request": {
      "method": "PUT",
      "url": "Encounter/encounter-PrescribeABPM3-1"
    }
  }, {
    "resource": {
      "resourceType": "Encounter",
      "id": "encounter-PrescribeABPM3-2",
      "status": "finished",
      "class": {
        "system": "http://terminology.hl7.org/CodeSystem/v3-ActCode",
        "version": "2.0.0",
        "code": "AMB",
        "display": "ambulatory"
      },
      "subject": {
        "reference": "Patient/PrescribeABPM3"
      },
      "period": {
        "start": "2014-08-18T12:00:00-06:00",
        "end": "2014-08-18T13:00:00-06:00"
      }
    },
    "request": {
      "method": "PUT",
      "url": "Encounter/encounter-PrescribeABPM3-2"
    }
  }, {
    "resource": {
      "resourceType": "Encounter",
      "id": "encounter-PrescribeABPM3-3",
      "status": "finished",
      "class": {
        "system": "http://terminology.hl7.org/CodeSystem/v3-ActCode",
        "version": "2.0.0",
        "code": "AMB",
        "display": "ambulatory"
      },
      "subject": {
        "reference": "Patient/PrescribeABPM3"
      },
      "period": {
        "start": "2014-11-20T12:00:00-06:00",
        "end": "2014-11-20T13:00:00-06:00"
      }
    },
    "request": {
      "method": "PUT",
      "url": "Encounter/encounter-PrescribeABPM3-3"
    }
  }, {
    "resource": {
      "resourceType": "Encounter",
      "id": "encounter-PrescribeABPM3-4",
      "status": "finished",
      "class": {
        "system": "http://terminology.hl7.org/CodeSystem/v3-ActCode",
        "version": "2.0.0",
        "code": "AMB",
        "display": "ambulatory"
      },
      "subject": {
        "reference": "Patient/PrescribeABPM3"
      },
      "period": {
        "start": "2015-01-06T12:00:00-06:00",
        "end": "2015-01-06T13:00:00-06:00"
      }
    },
    "request": {
      "method": "PUT",
      "url": "Encounter/encounter-PrescribeABPM3-4"
    }
  }, {
    "resource": {
      "resourceType": "Encounter",
      "id": "encounter-PrescribeABPM3-5",
      "status": "finished",
      "class": {
        "system": "http://terminology.hl7.org/CodeSystem/v3-ActCode",
        "version": "2.0.0",
        "code": "AMB",
        "display": "ambulatory"
      },
      "subject": {
        "reference": "Patient/PrescribeABPM3"
      },
      "period": {
        "start": "2015-01-09T12:00:00-06:00",
        "end": "2015-01-09T13:00:00-06:00"
      }
    },
    "request": {
      "method": "PUT",
      "url": "Encounter/encounter-PrescribeABPM3-5"
    }
  }, {
    "resource": {
      "resourceType": "Goal",
      "id": "goal-PrescribeABPM3-1",
      "lifecycleStatus": "active",
      "achievementStatus": {
        "coding": [ {
          "system": "http://terminology.hl7.org/CodeSystem/goal-achievement",
          "version": "4.0.1",
          "code": "active",
          "display": "Active"
        } ]
      },
      "description": {
        "text": "Lower Blood Pressure to 139/89."
      },
      "subject": {
        "reference": "Patient/PrescribeABPM3"
      },
      "startDate": "2015-01-14",
      "target": [ {
        "measure": {
          "coding": [ {
            "system": "http://loinc.org",
            "version": "2.68",
            "code": "8480-6",
            "display": "Systolic blood pressure"
          } ]
        },
        "detailQuantity": {
          "value": 139,
          "unit": "mmHg",
          "system": "http://unitsofmeasure.org",
          "code": "mm[Hg]"
        }
      }, {
        "measure": {
          "coding": [ {
            "system": "http://loinc.org",
            "version": "2.68",
            "code": "8462-4",
            "display": "Diastolic blood pressure"
          } ]
        },
        "detailQuantity": {
          "value": 89,
          "unit": "mmHg",
          "system": "http://unitsofmeasure.org",
          "code": "mm[Hg]"
        }
      } ]
    },
    "request": {
      "method": "PUT",
      "url": "Goal/goal-PrescribeABPM3-1"
    }
  }, {
    "resource": {
      "resourceType": "Observation",
      "id": "observation-PrescribeABPM3-1",
      "status": "final",
      "category": [ {
        "coding": [ {
          "system": "http://hl7.org/fhir/observation-category",
          "code": "vital-signs",
          "display": "Vital Signs",
          "userSelected": false
        } ],
        "text": "Vital Signs"
      } ],
      "code": {
        "coding": [ {
          "system": "http://loinc.org",
          "version": "2.68",
          "code": "55284-4",
          "display": "Blood pressure systolic and diastolic"
        } ],
        "text": "Blood pressure systolic and diastolic"
      },
      "subject": {
        "reference": "Patient/PrescribeABPM3"
      },
      "encounter": {
        "reference": "Encounter/encounter-PrescribeABPM3-1"
      },
      "effectiveDateTime": "2015-03-25T12:20:00-06:00",
      "component": [ {
        "code": {
          "coding": [ {
            "system": "http://loinc.org",
            "code": "8480-6",
            "display": "Systolic blood pressure",
            "userSelected": false
          } ],
          "text": "Systolic blood pressure"
        },
        "valueQuantity": {
          "value": 135,
          "unit": "mmHg",
          "system": "http://unitsofmeasure.org",
          "code": "mm[Hg]"
        }
      }, {
        "code": {
          "coding": [ {
            "system": "http://loinc.org",
            "code": "8462-4",
            "display": "Diastolic blood pressure",
            "userSelected": false
          } ],
          "text": "Diastolic blood pressure"
        },
        "valueQuantity": {
          "value": 82,
          "unit": "mmHg",
          "system": "http://unitsofmeasure.org",
          "code": "mm[Hg]"
        }
      } ]
    },
    "request": {
      "method": "PUT",
      "url": "Observation/observation-PrescribeABPM3-1"
    }
  }, {
    "resource": {
      "resourceType": "Observation",
      "id": "observation-PrescribeABPM3-2",
      "status": "final",
      "category": [ {
        "coding": [ {
          "system": "http://hl7.org/fhir/observation-category",
          "code": "vital-signs",
          "display": "Vital Signs",
          "userSelected": false
        } ],
        "text": "Vital Signs"
      } ],
      "code": {
        "coding": [ {
          "system": "http://loinc.org",
          "version": "2.68",
          "code": "55284-4",
          "display": "Blood pressure systolic and diastolic"
        } ],
        "text": "Blood pressure systolic and diastolic"
      },
      "subject": {
        "reference": "Patient/PrescribeABPM3"
      },
      "encounter": {
        "reference": "Encounter/encounter-PrescribeABPM3-2"
      },
      "effectiveDateTime": "2014-08-18T12:20:00-06:00",
      "component": [ {
        "code": {
          "coding": [ {
            "system": "http://loinc.org",
            "code": "8480-6",
            "display": "Systolic blood pressure",
            "userSelected": false
          } ],
          "text": "Systolic blood pressure"
        },
        "valueQuantity": {
          "value": 80,
          "unit": "mmHg",
          "system": "http://unitsofmeasure.org",
          "code": "mm[Hg]"
        }
      }, {
        "code": {
          "coding": [ {
            "system": "http://loinc.org",
            "code": "8462-4",
            "display": "Diastolic blood pressure",
            "userSelected": false
          } ],
          "text": "Diastolic blood pressure"
        },
        "valueQuantity": {
          "value": 55,
          "unit": "mmHg",
          "system": "http://unitsofmeasure.org",
          "code": "mm[Hg]"
        }
      } ]
    },
    "request": {
      "method": "PUT",
      "url": "Observation/observation-PrescribeABPM3-2"
    }
  }, {
    "resource": {
      "resourceType": "Observation",
      "id": "observation-PrescribeABPM3-3",
      "status": "final",
      "category": [ {
        "coding": [ {
          "system": "http://hl7.org/fhir/observation-category",
          "code": "vital-signs",
          "display": "Vital Signs",
          "userSelected": false
        } ],
        "text": "Vital Signs"
      } ],
      "code": {
        "coding": [ {
          "system": "http://loinc.org",
          "version": "2.68",
          "code": "55284-4",
          "display": "Blood pressure systolic and diastolic"
        } ],
        "text": "Blood pressure systolic and diastolic"
      },
      "subject": {
        "reference": "Patient/PrescribeABPM3"
      },
      "encounter": {
        "reference": "Encounter/encounter-PrescribeABPM3-3"
      },
      "effectiveDateTime": "2014-11-20T12:20:00-06:00",
      "component": [ {
        "code": {
          "coding": [ {
            "system": "http://loinc.org",
            "code": "8480-6",
            "display": "Systolic blood pressure",
            "userSelected": false
          } ],
          "text": "Systolic blood pressure"
        },
        "valueQuantity": {
          "value": 105,
          "unit": "mmHg",
          "system": "http://unitsofmeasure.org",
          "code": "mm[Hg]"
        }
      }, {
        "code": {
          "coding": [ {
            "system": "http://loinc.org",
            "code": "8462-4",
            "display": "Diastolic blood pressure",
            "userSelected": false
          } ],
          "text": "Diastolic blood pressure"
        },
        "valueQuantity": {
          "value": 70,
          "unit": "mmHg",
          "system": "http://unitsofmeasure.org",
          "code": "mm[Hg]"
        }
      } ]
    },
    "request": {
      "method": "PUT",
      "url": "Observation/observation-PrescribeABPM3-3"
    }
  }, {
    "resource": {
      "resourceType": "Observation",
      "id": "observation-PrescribeABPM3-4",
      "status": "final",
      "category": [ {
        "coding": [ {
          "system": "http://hl7.org/fhir/observation-category",
          "code": "vital-signs",
          "display": "Vital Signs",
          "userSelected": false
        } ],
        "text": "Vital Signs"
      } ],
      "code": {
        "coding": [ {
          "system": "http://loinc.org",
          "version": "2.68",
          "code": "55284-4",
          "display": "Blood pressure systolic and diastolic"
        } ],
        "text": "Blood pressure systolic and diastolic"
      },
      "subject": {
        "reference": "Patient/PrescribeABPM3"
      },
      "encounter": {
        "reference": "Encounter/encounter-PrescribeABPM3-4"
      },
      "effectiveDateTime": "2015-01-06T12:20:00-06:00",
      "component": [ {
        "code": {
          "coding": [ {
            "system": "http://loinc.org",
            "code": "8480-6",
            "display": "Systolic blood pressure",
            "userSelected": false
          } ],
          "text": "Systolic blood pressure"
        },
        "valueQuantity": {
          "value": 120,
          "unit": "mmHg",
          "system": "http://unitsofmeasure.org",
          "code": "mm[Hg]"
        }
      }, {
        "code": {
          "coding": [ {
            "system": "http://loinc.org",
            "code": "8462-4",
            "display": "Diastolic blood pressure",
            "userSelected": false
          } ],
          "text": "Diastolic blood pressure"
        },
        "valueQuantity": {
          "value": 80,
          "unit": "mmHg",
          "system": "http://unitsofmeasure.org",
          "code": "mm[Hg]"
        }
      } ]
    },
    "request": {
      "method": "PUT",
      "url": "Observation/observation-PrescribeABPM3-4"
    }
  }, {
    "resource": {
      "resourceType": "Observation",
      "id": "observation-PrescribeABPM3-5",
      "status": "final",
      "category": [ {
        "coding": [ {
          "system": "http://hl7.org/fhir/observation-category",
          "code": "vital-signs",
          "display": "Vital Signs",
          "userSelected": false
        } ],
        "text": "Vital Signs"
      } ],
      "code": {
        "coding": [ {
          "system": "http://loinc.org",
          "version": "2.68",
          "code": "55284-4",
          "display": "Blood pressure systolic and diastolic"
        } ],
        "text": "Blood pressure systolic and diastolic"
      },
      "subject": {
        "reference": "Patient/PrescribeABPM3"
      },
      "encounter": {
        "reference": "Encounter/encounter-PrescribeABPM3-5"
      },
      "effectiveDateTime": "2015-01-09T12:20:00-06:00",
      "component": [ {
        "code": {
          "coding": [ {
            "system": "http://loinc.org",
            "code": "8480-6",
            "display": "Systolic blood pressure",
            "userSelected": false
          } ],
          "text": "Systolic blood pressure"
        },
        "valueQuantity": {
          "value": 122,
          "unit": "mmHg",
          "system": "http://unitsofmeasure.org",
          "code": "mm[Hg]"
        }
      }, {
        "code": {
          "coding": [ {
            "system": "http://loinc.org",
            "code": "8462-4",
            "display": "Diastolic blood pressure",
            "userSelected": false
          } ],
          "text": "Diastolic blood pressure"
        },
        "valueQuantity": {
          "value": 83,
          "unit": "mmHg",
          "system": "http://unitsofmeasure.org",
          "code": "mm[Hg]"
        }
      } ]
    },
    "request": {
      "method": "PUT",
      "url": "Observation/observation-PrescribeABPM3-5"
    }
  }, {
    "resource": {
      "resourceType": "Patient",
      "id": "PrescribeABPM3",
      "active": true,
      "name": [ {
        "text": "PrescribeABPM3 Patient",
        "family": "Patient",
        "given": [ "PrescribeABPM3" ]
      } ],
      "gender": "female",
      "birthDate": "1982-05-01"
    },
    "request": {
      "method": "PUT",
      "url": "Patient/PrescribeABPM3"
    }
  } ]
}