{
  "resourceType": "Bundle",
  "id": "tests-M-PatientAtGoal-bundle",
  "type": "transaction",
  "entry": [ {
    "resource": {
      "resourceType": "Encounter",
      "id": "encounter-M-PatientAtGoal-3",
      "status": "finished",
      "class": {
        "system": "http://terminology.hl7.org/CodeSystem/v3-ActCode",
        "code": "AMB"
      },
      "type": [ {
        "coding": [ {
          "system": "http://snomed.info/sct",
          "code": "162673000",
          "display": "General examination of patient (procedure)"
        } ],
        "text": "General examination of patient (procedure)"
      } ],
      "subject": {
        "reference": "Patient/M-PatientAtGoal"
      },
      "period": {
        "start": "2023-02-18T00:00:00-04:00",
        "end": "2023-02-18T23:59:59-04:00"
      }
    },
    "request": {
      "method": "PUT",
      "url": "Encounter/encounter-M-PatientAtGoal-3"
    }
  }, {
    "resource": {
      "resourceType": "Encounter",
      "id": "encounter-M-PatientAtGoal-2",
      "status": "finished",
      "class": {
        "system": "http://terminology.hl7.org/CodeSystem/v3-ActCode",
        "code": "AMB"
      },
      "type": [ {
        "coding": [ {
          "system": "http://snomed.info/sct",
          "code": "162673000",
          "display": "General examination of patient (procedure)"
        } ],
        "text": "General examination of patient (procedure)"
      } ],
      "subject": {
        "reference": "Patient/M-PatientAtGoal"
      },
      "period": {
        "start": "2023-01-21T00:00:00-04:00",
        "end": "2023-01-21T23:59:59-04:00"
      }
    },
    "request": {
      "method": "PUT",
      "url": "Encounter/encounter-M-PatientAtGoal-2"
    }
  }, {
    "resource": {
      "resourceType": "Encounter",
      "id": "encounter-M-PatientAtGoal-4",
      "status": "finished",
      "class": {
        "system": "http://terminology.hl7.org/CodeSystem/v3-ActCode",
        "code": "AMB"
      },
      "type": [ {
        "coding": [ {
          "system": "http://snomed.info/sct",
          "code": "162673000",
          "display": "General examination of patient (procedure)"
        } ],
        "text": "General examination of patient (procedure)"
      } ],
      "subject": {
        "reference": "Patient/M-PatientAtGoal"
      },
      "period": {
        "start": "2023-03-21T00:00:00-04:00",
        "end": "2023-03-21T23:59:59-04:00"
      }
    },
    "request": {
      "method": "PUT",
      "url": "Encounter/encounter-M-PatientAtGoal-4"
    }
  }, {
    "resource": {
      "resourceType": "Encounter",
      "id": "encounter-M-PatientAtGoal-1",
      "status": "finished",
      "class": {
        "system": "http://terminology.hl7.org/CodeSystem/v3-ActCode",
        "code": "AMB"
      },
      "type": [ {
        "coding": [ {
          "system": "http://snomed.info/sct",
          "code": "162673000",
          "display": "General examination of patient (procedure)"
        } ],
        "text": "General examination of patient (procedure)"
      } ],
      "subject": {
        "reference": "Patient/M-PatientAtGoal"
      },
      "period": {
        "start": "2022-12-21T00:00:00-04:00",
        "end": "2022-12-21T23:59:59-04:00"
      }
    },
    "request": {
      "method": "PUT",
      "url": "Encounter/encounter-M-PatientAtGoal-1"
    }
  }, {
    "resource": {
      "resourceType": "Condition",
      "id": "condition-M-PatientAtGoal-1",
      "clinicalStatus": {
        "coding": [ {
          "system": "http://terminology.hl7.org/CodeSystem/condition-clinical",
          "code": "active"
        } ]
      },
      "verificationStatus": {
        "coding": [ {
          "system": "http://terminology.hl7.org/CodeSystem/condition-ver-status",
          "code": "confirmed"
        } ]
      },
      "category": [ {
        "coding": [ {
          "system": "http://terminology.hl7.org/CodeSystem/condition-category",
          "code": "problem-list-item",
          "display": "Problem List Item"
        } ],
        "text": "Problem List Item"
      } ],
      "code": {
        "coding": [ {
          "system": "http://snomed.info/sct",
          "code": "59621000",
          "display": "Hypertension"
        } ],
        "text": "Hypertension"
      },
      "subject": {
        "reference": "Patient/M-PatientAtGoal"
      },
      "onsetDateTime": "2016-12-22T15:16:21-05:00",
      "recordedDate": "2016-12-22T15:16:21-05:00",
      "note": [ {
        "text": "Indicates Preexisting Diagnosis of Hypertension"
      } ]
    },
    "request": {
      "method": "PUT",
      "url": "Condition/condition-M-PatientAtGoal-1"
    }
  }, {
    "resource": {
      "resourceType": "Patient",
      "id": "M-PatientAtGoal",
      "active": true,
      "name": [ {
        "text": "Patient At Goal",
        "family": "AtGoal",
        "given": [ "Patient" ]
      } ],
      "gender": "female",
      "birthDate": "1994-03-07"
    },
    "request": {
      "method": "PUT",
      "url": "Patient/M-PatientAtGoal"
    }
  }, {
    "resource": {
      "resourceType": "Observation",
      "id": "observation-M-PatientAtGoal-6",
      "extension": [ {
        "url": "http://hl7.org/fhir/us/vitals/StructureDefinition/MeasurementSettingExt",
        "valueCoding": {
          "system": "http://snomed.info/sct",
          "code": "264362003"
        }
      } ],
      "status": "final",
      "category": [ {
        "coding": [ {
          "system": "http://terminology.hl7.org/CodeSystem/observation-category",
          "code": "vital-signs",
          "display": "vital-signs"
        } ]
      } ],
      "code": {
        "coding": [ {
          "system": "http://loinc.org",
          "code": "55284-4",
          "display": "Blood Pressure"
        } ],
        "text": "Blood Pressure"
      },
      "subject": {
        "reference": "Patient/M-PatientAtGoal"
      },
      "effectiveDateTime": "2022-12-01T15:16:21-05:00",
      "note": [ {
        "text": "Home Blood Pressure Reading"
      } ],
      "component": [ {
        "code": {
          "coding": [ {
            "system": "http://loinc.org",
            "code": "8462-4",
            "display": "Diastolic Blood Pressure"
          } ],
          "text": "Diastolic Blood Pressure"
        },
        "valueQuantity": {
          "value": 74.52660352979804,
          "unit": "mm[Hg]",
          "system": "http://unitsofmeasure.org",
          "code": "mm[Hg]"
        }
      }, {
        "code": {
          "coding": [ {
            "system": "http://loinc.org",
            "code": "8480-6",
            "display": "Systolic Blood Pressure"
          } ],
          "text": "Systolic Blood Pressure"
        },
        "valueQuantity": {
          "value": 126.65064054117963,
          "unit": "mm[Hg]",
          "system": "http://unitsofmeasure.org",
          "code": "mm[Hg]"
        }
      } ]
    },
    "request": {
      "method": "PUT",
      "url": "Observation/observation-M-PatientAtGoal-6"
    }
  }, {
    "resource": {
      "resourceType": "Observation",
      "id": "observation-M-PatientAtGoal-1",
      "status": "final",
      "category": [ {
        "coding": [ {
          "system": "http://terminology.hl7.org/CodeSystem/observation-category",
          "code": "vital-signs",
          "display": "vital-signs"
        } ]
      } ],
      "code": {
        "coding": [ {
          "system": "http://loinc.org",
          "code": "55284-4",
          "display": "Blood Pressure"
        } ],
        "text": "Blood Pressure"
      },
      "subject": {
        "reference": "Patient/M-PatientAtGoal"
      },
      "encounter": {
        "reference": "Encounter/encounter-M-PatientAtGoal-1"
      },
      "effectiveDateTime": "2022-12-21T15:16:21-05:00",
      "note": [ {
        "text": "Office Blood Pressure Reading"
      } ],
      "component": [ {
        "code": {
          "coding": [ {
            "system": "http://loinc.org",
            "code": "8462-4",
            "display": "Diastolic Blood Pressure"
          } ],
          "text": "Diastolic Blood Pressure"
        },
        "valueQuantity": {
          "value": 75.9349105113392,
          "unit": "mm[Hg]",
          "system": "http://unitsofmeasure.org",
          "code": "mm[Hg]"
        }
      }, {
        "code": {
          "coding": [ {
            "system": "http://loinc.org",
            "code": "8480-6",
            "display": "Systolic Blood Pressure"
          } ],
          "text": "Systolic Blood Pressure"
        },
        "valueQuantity": {
          "value": 129.53332100989888,
          "unit": "mm[Hg]",
          "system": "http://unitsofmeasure.org",
          "code": "mm[Hg]"
        }
      } ]
    },
    "request": {
      "method": "PUT",
      "url": "Observation/observation-M-PatientAtGoal-1"
    }
  }, {
    "resource": {
      "resourceType": "Observation",
      "id": "observation-M-PatientAtGoal-2",
      "status": "final",
      "category": [ {
        "coding": [ {
          "system": "http://terminology.hl7.org/CodeSystem/observation-category",
          "code": "vital-signs",
          "display": "vital-signs"
        } ]
      } ],
      "code": {
        "coding": [ {
          "system": "http://loinc.org",
          "code": "55284-4",
          "display": "Blood Pressure"
        } ],
        "text": "Blood Pressure"
      },
      "subject": {
        "reference": "Patient/M-PatientAtGoal"
      },
      "encounter": {
        "reference": "Encounter/encounter-M-PatientAtGoal-2"
      },
      "effectiveDateTime": "2023-01-21T15:16:21-05:00",
      "note": [ {
        "text": "Office Blood Pressure Reading"
      } ],
      "component": [ {
        "code": {
          "coding": [ {
            "system": "http://loinc.org",
            "code": "8462-4",
            "display": "Diastolic Blood Pressure"
          } ],
          "text": "Diastolic Blood Pressure"
        },
        "valueQuantity": {
          "value": 77.995226014274,
          "unit": "mm[Hg]",
          "system": "http://unitsofmeasure.org",
          "code": "mm[Hg]"
        }
      }, {
        "code": {
          "coding": [ {
            "system": "http://loinc.org",
            "code": "8480-6",
            "display": "Systolic Blood Pressure"
          } ],
          "text": "Systolic Blood Pressure"
        },
        "valueQuantity": {
          "value": 127.4534388828563,
          "unit": "mm[Hg]",
          "system": "http://unitsofmeasure.org",
          "code": "mm[Hg]"
        }
      } ]
    },
    "request": {
      "method": "PUT",
      "url": "Observation/observation-M-PatientAtGoal-2"
    }
  }, {
    "resource": {
      "resourceType": "Observation",
      "id": "observation-M-PatientAtGoal-3",
      "status": "final",
      "category": [ {
        "coding": [ {
          "system": "http://terminology.hl7.org/CodeSystem/observation-category",
          "code": "vital-signs",
          "display": "vital-signs"
        } ]
      } ],
      "code": {
        "coding": [ {
          "system": "http://loinc.org",
          "code": "55284-4",
          "display": "Blood Pressure"
        } ],
        "text": "Blood Pressure"
      },
      "subject": {
        "reference": "Patient/M-PatientAtGoal"
      },
      "encounter": {
        "reference": "Encounter/encounter-M-PatientAtGoal-3"
      },
      "effectiveDateTime": "2023-02-18T15:16:21-05:00",
      "note": [ {
        "text": "Office Blood Pressure Reading"
      } ],
      "component": [ {
        "code": {
          "coding": [ {
            "system": "http://loinc.org",
            "code": "8462-4",
            "display": "Diastolic Blood Pressure"
          } ],
          "text": "Diastolic Blood Pressure"
        },
        "valueQuantity": {
          "value": 82.45508952819434,
          "unit": "mm[Hg]",
          "system": "http://unitsofmeasure.org",
          "code": "mm[Hg]"
        }
      }, {
        "code": {
          "coding": [ {
            "system": "http://loinc.org",
            "code": "8480-6",
            "display": "Systolic Blood Pressure"
          } ],
          "text": "Systolic Blood Pressure"
        },
        "valueQuantity": {
          "value": 130.67001870978417,
          "unit": "mm[Hg]",
          "system": "http://unitsofmeasure.org",
          "code": "mm[Hg]"
        }
      } ]
    },
    "request": {
      "method": "PUT",
      "url": "Observation/observation-M-PatientAtGoal-3"
    }
  }, {
    "resource": {
      "resourceType": "Observation",
      "id": "observation-M-PatientAtGoal-4",
      "status": "final",
      "category": [ {
        "coding": [ {
          "system": "http://terminology.hl7.org/CodeSystem/observation-category",
          "code": "vital-signs",
          "display": "vital-signs"
        } ]
      } ],
      "code": {
        "coding": [ {
          "system": "http://loinc.org",
          "code": "55284-4",
          "display": "Blood Pressure"
        } ],
        "text": "Blood Pressure"
      },
      "subject": {
        "reference": "Patient/M-PatientAtGoal"
      },
      "encounter": {
        "reference": "Encounter/encounter-M-PatientAtGoal-4"
      },
      "effectiveDateTime": "2023-03-21T15:16:21-05:00",
      "note": [ {
        "text": "Office Blood Pressure Reading"
      } ],
      "component": [ {
        "code": {
          "coding": [ {
            "system": "http://loinc.org",
            "code": "8462-4",
            "display": "Diastolic Blood Pressure"
          } ],
          "text": "Diastolic Blood Pressure"
        },
        "valueQuantity": {
          "value": 79.52660352979804,
          "unit": "mm[Hg]",
          "system": "http://unitsofmeasure.org",
          "code": "mm[Hg]"
        }
      }, {
        "code": {
          "coding": [ {
            "system": "http://loinc.org",
            "code": "8480-6",
            "display": "Systolic Blood Pressure"
          } ],
          "text": "Systolic Blood Pressure"
        },
        "valueQuantity": {
          "value": 130.65064054117963,
          "unit": "mm[Hg]",
          "system": "http://unitsofmeasure.org",
          "code": "mm[Hg]"
        }
      } ]
    },
    "request": {
      "method": "PUT",
      "url": "Observation/observation-M-PatientAtGoal-4"
    }
  }, {
    "resource": {
      "resourceType": "Observation",
      "id": "observation-M-PatientAtGoal-5",
      "extension": [ {
        "url": "http://hl7.org/fhir/us/vitals/StructureDefinition/MeasurementSettingExt",
        "valueCoding": {
          "system": "http://snomed.info/sct",
          "code": "264362003"
        }
      } ],
      "status": "final",
      "category": [ {
        "coding": [ {
          "system": "http://terminology.hl7.org/CodeSystem/observation-category",
          "code": "vital-signs",
          "display": "vital-signs"
        } ]
      } ],
      "code": {
        "coding": [ {
          "system": "http://loinc.org",
          "code": "55284-4",
          "display": "Blood Pressure"
        } ],
        "text": "Blood Pressure"
      },
      "subject": {
        "reference": "Patient/M-PatientAtGoal"
      },
      "effectiveDateTime": "2023-04-20T15:16:21-05:00",
      "note": [ {
        "text": "Home Blood Pressure Reading"
      } ],
      "component": [ {
        "code": {
          "coding": [ {
            "system": "http://loinc.org",
            "code": "8462-4",
            "display": "Diastolic Blood Pressure"
          } ],
          "text": "Diastolic Blood Pressure"
        },
        "valueQuantity": {
          "value": 81.52660352979804,
          "unit": "mm[Hg]",
          "system": "http://unitsofmeasure.org",
          "code": "mm[Hg]"
        }
      }, {
        "code": {
          "coding": [ {
            "system": "http://loinc.org",
            "code": "8480-6",
            "display": "Systolic Blood Pressure"
          } ],
          "text": "Systolic Blood Pressure"
        },
        "valueQuantity": {
          "value": 132.65064054117963,
          "unit": "mm[Hg]",
          "system": "http://unitsofmeasure.org",
          "code": "mm[Hg]"
        }
      } ]
    },
    "request": {
      "method": "PUT",
      "url": "Observation/observation-M-PatientAtGoal-5"
    }
  }, {
    "resource": {
      "resourceType": "Goal",
      "id": "goal-M-PatientAtGoal-1",
      "lifecycleStatus": "active",
      "achievementStatus": {
        "coding": [ {
          "system": "http://terminology.hl7.org/CodeSystem/goal-achievement",
          "version": "4.0.1",
          "code": "in-progress",
          "display": "In Progress"
        } ]
      },
      "description": {
        "text": "Goal of 135/85"
      },
      "subject": {
        "reference": "Patient/M-PatientAtGoal"
      },
      "startDate": "2023-06-06",
      "target": [ {
        "measure": {
          "coding": [ {
            "system": "http://loinc.org",
            "version": "2.68",
            "code": "8480-6",
            "display": "Systolic blood pressure"
          } ]
        },
        "detailQuantity": {
          "value": 135,
          "unit": "mmHg",
          "system": "http://unitsofmeasure.org",
          "code": "mm[Hg]"
        }
      }, {
        "measure": {
          "coding": [ {
            "system": "http://loinc.org",
            "version": "2.68",
            "code": "8462-4",
            "display": "Diastolic blood pressure"
          } ]
        },
        "detailQuantity": {
          "value": 85,
          "unit": "mmHg",
          "system": "http://unitsofmeasure.org",
          "code": "mm[Hg]"
        }
      } ],
      "statusDate": "2023-06-06"
    },
    "request": {
      "method": "PUT",
      "url": "Goal/goal-M-PatientAtGoal-1"
    }
  } ]
}