{
  "hookInstance": "test",
  "fhirServer": "http://localhost:8080/cqf-ruler-r4/fhir",
  "hook": "patient-view",
  "applyCql": true,
  "context": {
    "userId": "Practitioner/example",
    "patientId": "NPI-AlcoholModerationAchieved"
  },
  "prefetch": {
    "item1": {
      "response": {
        "status": "200 OK"
      },
      "resource": {
        "resourceType": "Bundle",
        "type": "transaction",
        "entry": [
          {
            "resource": {
              "resourceType": "Procedure",
              "id": "procedure-NPI-AlcoholModerationAchieved-1",
              "note": [
                {
                  "text": "The patient had weight loss counseling related to an observation on a BMI > 25"
                }
              ],
              "status": "completed",
              "code": {
                "coding": [
                  {
                    "system": "http://snomed.info/sct",
                    "code": "266724001",
                    "display": "Weight-reducing diet education (procedure)"
                  }
                ],
                "text": "Weight-reducing diet education (procedure)"
              },
              "subject": {
                "reference": "Patient/NPI-AlcoholModerationAchieved"
              },
              "performedDateTime": "2019-05-30T11:00:00-06:00",
              "reasonReference": [
                {
                  "reference": "Observation/observation-NPI-AlcoholModerationAchieved-2"
                }
              ]
            },
            "request": {
              "method": "PUT",
              "url": "request-url"
            }
          },
          {
            "resource": {
              "resourceType": "Procedure",
              "id": "procedure-NPI-AlcoholModerationAchieved-2",
              "note": [
                {
                  "text": "The patient had alcohol counseling related to an observation they are a heavy drinker"
                }
              ],
              "status": "completed",
              "code": {
                "coding": [
                  {
                    "system": "http://snomed.info/sct",
                    "code": "24165007",
                    "display": "Alcoholism counseling (procedure)"
                  }
                ],
                "text": "Alcoholism counseling (procedure)"
              },
              "subject": {
                "reference": "Patient/NPI-AlcoholModerationAchieved"
              },
              "performedDateTime": "2019-05-30T11:00:00-06:00",
              "reasonReference": [
                {
                  "reference": "Observation/observation-NPI-AlcoholModerationAchieved-1"
                }
              ]
            },
            "request": {
              "method": "PUT",
              "url": "request-url"
            }
          },
          {
            "resource": {
              "resourceType": "Condition",
              "id": "condition-NPI-AlcoholModerationAchieved-1",
              "note": [
                {
                  "text": "Indicates Preexisting Diagnosis of Hypertension"
                }
              ],
              "clinicalStatus": {
                "coding": [
                  {
                    "system": "http://terminology.hl7.org/CodeSystem/condition-clinical",
                    "code": "active"
                  }
                ]
              },
              "verificationStatus": {
                "coding": [
                  {
                    "system": "http://terminology.hl7.org/CodeSystem/condition-ver-status",
                    "code": "confirmed"
                  }
                ]
              },
              "code": {
                "coding": [
                  {
                    "system": "http://snomed.info/sct",
                    "code": "59621000",
                    "display": "Hypertension"
                  }
                ],
                "text": "Hypertension"
              },
              "subject": {
                "reference": "Patient/NPI-AlcoholModerationAchieved"
              },
              "onsetDateTime": "2015-01-28T15:16:21-05:00",
              "recordedDate": "2015-01-28T15:16:21-05:00"
            },
            "request": {
              "method": "PUT",
              "url": "request-url"
            }
          },
          {
            "resource": {
              "resourceType": "Patient",
              "id": "NPI-AlcoholModerationAchieved",
              "active": true,
              "name": [
                {
                  "text": "Alcohol Moderation Achieved",
                  "family": "Achieved",
                  "given": [
                    "AlcoholModeration"
                  ]
                }
              ],
              "gender": "male",
              "birthDate": "1984-05-31"
            },
            "request": {
              "method": "PUT",
              "url": "request-url"
            }
          },
          {
            "resource": {
              "resourceType": "Observation",
              "id": "observation-NPI-AlcoholModerationAchieved-1",
              "status": "final",
              "note": [
                {
                  "text": "Patient is male and has more than 5 drinks a day. Refer to counseling."
                }
              ],
              "code": {
                "coding": [
                  {
                    "system": "http://loinc.org",
                    "version": "2.69",
                    "code": "11287-0",
                    "display": "Alcoholic drinks per drinking day - Reported"
                  }
                ]
              },
              "subject": {
                "reference": "Patient/NPI-AlcoholModerationAchieved"
              },
              "effectiveDateTime": "2019-05-27T10:00:00-07:00",
              "issued": "2019-05-27T00:00:00-07:00",
              "valueQuantity": {
                "value": 6,
                "unit": "Drinks/Day"
              }
            },
            "request": {
              "method": "PUT",
              "url": "request-url"
            }
          },
          {
            "resource": {
              "resourceType": "Observation",
              "id": "observation-NPI-AlcoholModerationAchieved-4",
              "status": "final",
              "note": [
                {
                  "text": "Patient weight improved after counseling but drinking has increased."
                }
              ],
              "category": [
                {
                  "coding": [
                    {
                      "system": "http://terminology.hl7.org/CodeSystem/observation-category",
                      "code": "vital-signs",
                      "display": "vital-signs"
                    }
                  ]
                }
              ],
              "code": {
                "coding": [
                  {
                    "system": "http://loinc.org",
                    "code": "39156-5",
                    "display": "Body Mass Index"
                  }
                ],
                "text": "Body Mass Index"
              },
              "subject": {
                "reference": "Patient/NPI-AlcoholModerationAchieved"
              },
              "effectiveDateTime": "2019-06-15T03:14:57-05:00",
              "issued": "2019-06-15T03:14:57.429-05:00",
              "valueQuantity": {
                "value": 24.690689692990766,
                "unit": "kg/m2",
                "system": "http://unitsofmeasure.org",
                "code": "kg/m2"
              }
            },
            "request": {
              "method": "PUT",
              "url": "request-url"
            }
          },
          {
            "resource": {
              "resourceType": "Observation",
              "id": "observation-NPI-AlcoholModerationAchieved-3",
              "status": "final",
              "note": [
                {
                  "text": "Patient is male and drinking has decreased since counseling."
                }
              ],
              "code": {
                "coding": [
                  {
                    "system": "http://loinc.org",
                    "version": "2.69",
                    "code": "11287-0",
                    "display": "Alcoholic drinks per drinking day - Reported"
                  }
                ]
              },
              "subject": {
                "reference": "Patient/NPI-AlcoholModerationAchieved"
              },
              "effectiveDateTime": "2020-06-15T10:00:00-07:00",
              "issued": "2020-06-15T00:00:00-07:00",
              "valueQuantity": {
                "value": 2,
                "unit": "Drinks/Day"
              }
            },
            "request": {
              "method": "PUT",
              "url": "request-url"
            }
          },
          {
            "resource": {
              "resourceType": "Observation",
              "id": "observation-NPI-AlcoholModerationAchieved-2",
              "status": "final",
              "note": [
                {
                  "text": "Patient has a BMI > 25. Refer to counseling for weight loss. Patient is only a moderate drinker so not being referred at this time."
                }
              ],
              "category": [
                {
                  "coding": [
                    {
                      "system": "http://terminology.hl7.org/CodeSystem/observation-category",
                      "code": "vital-signs",
                      "display": "vital-signs"
                    }
                  ]
                }
              ],
              "code": {
                "coding": [
                  {
                    "system": "http://loinc.org",
                    "code": "39156-5",
                    "display": "Body Mass Index"
                  }
                ],
                "text": "Body Mass Index"
              },
              "subject": {
                "reference": "Patient/NPI-AlcoholModerationAchieved"
              },
              "effectiveDateTime": "2019-05-27T03:14:57-05:00",
              "issued": "2019-05-27T03:14:57.429-05:00",
              "valueQuantity": {
                "value": 27.690689692990766,
                "unit": "kg/m2",
                "system": "http://unitsofmeasure.org",
                "code": "kg/m2"
              }
            },
            "request": {
              "method": "PUT",
              "url": "request-url"
            }
          },
          {
            "resource": {
              "resourceType": "Goal",
              "id": "goal-NPI-AlcoholModerationAchieved-1",
              "lifecycleStatus": "planned",
              "achievementStatus": {
                "coding": [
                  {
                    "system": "http://terminology.hl7.org/CodeSystem/goal-achievement",
                    "version": "4.0.1",
                    "code": "in-progress",
                    "display": "In Progress"
                  }
                ]
              },
              "startDate": "2020-02-12",
              "description": {
                "text": "Goal of 135/85"
              },
              "subject": {
                "reference": "Patient/NPI-AlcoholModerationAchieved"
              },
              "target": [
                {
                  "measure": {
                    "coding": [
                      {
                        "system": "http://loinc.org",
                        "version": "2.68",
                        "code": "8480-6",
                        "display": "Systolic blood pressure"
                      }
                    ]
                  },
                  "detailQuantity": {
                    "value": 135,
                    "unit": "mmHg",
                    "system": "http://unitsofmeasure.org",
                    "code": "mm[Hg]"
                  }
                },
                {
                  "measure": {
                    "coding": [
                      {
                        "system": "http://loinc.org",
                        "version": "2.68",
                        "code": "8462-4",
                        "display": "Diastolic blood pressure"
                      }
                    ]
                  },
                  "detailQuantity": {
                    "value": 85,
                    "unit": "mmHg",
                    "system": "http://unitsofmeasure.org",
                    "code": "mm[Hg]"
                  }
                }
              ]
            },
            "request": {
              "method": "PUT",
              "url": "request-url"
            }
          }
        ]
      }
    }
  }
}