{
  "hookInstance": "test",
  "fhirServer": "http://localhost:8080/cqf-ruler-r4/fhir",
  "hook": "patient-view",
  "applyCql": true,
  "context": {
    "userId": "Practitioner/example",
    "patientId": "NPI-SmokingCessationIncrease"
  },
  "prefetch": {
    "item1": {
      "response": {
        "status": "200 OK"
      },
      "resource": {
        "resourceType": "Bundle",
        "type": "transaction",
        "entry": [
          {
            "resource": {
              "resourceType": "Procedure",
              "id": "procedure-NPI-SmokingCessationIncrease-1",
              "note": [
                {
                  "text": "The patient had tobacco cessation counseling related to an observation that they are a heavy smoker"
                }
              ],
              "status": "completed",
              "code": {
                "coding": [
                  {
                    "system": "http://snomed.info/sct",
                    "code": "225323000",
                    "display": "Smoking cessation education (procedure)"
                  }
                ],
                "text": "Smoking cessation education (procedure)"
              },
              "subject": {
                "reference": "Patient/NPI-SmokingCessationIncrease"
              },
              "performedDateTime": "2019-01-05T11:00:00-06:00",
              "reasonReference": [
                {
                  "reference": "Observation/observation-NPI-SmokingCessationIncrease-1"
                }
              ]
            },
            "request": {
              "method": "PUT",
              "url": "request-url"
            }
          },
          {
            "resource": {
              "resourceType": "Condition",
              "id": "condition-NPI-SmokingCessationIncrease-1",
              "note": [
                {
                  "text": "Indicates Preexisting Diagnosis of Hypertension"
                }
              ],
              "clinicalStatus": {
                "coding": [
                  {
                    "system": "http://terminology.hl7.org/CodeSystem/condition-clinical",
                    "code": "active"
                  }
                ]
              },
              "verificationStatus": {
                "coding": [
                  {
                    "system": "http://terminology.hl7.org/CodeSystem/condition-ver-status",
                    "code": "confirmed"
                  }
                ]
              },
              "code": {
                "coding": [
                  {
                    "system": "http://snomed.info/sct",
                    "code": "59621000",
                    "display": "Hypertension"
                  }
                ],
                "text": "Hypertension"
              },
              "subject": {
                "reference": "Patient/NPI-SmokingCessationIncrease"
              },
              "onsetDateTime": "2015-01-28T15:16:21-05:00",
              "recordedDate": "2015-01-28T15:16:21-05:00"
            },
            "request": {
              "method": "PUT",
              "url": "request-url"
            }
          },
          {
            "resource": {
              "resourceType": "Patient",
              "id": "NPI-SmokingCessationIncrease",
              "active": true,
              "name": [
                {
                  "text": "Smoking Cessation Increase",
                  "family": "Increase",
                  "given": [
                    "SmokingCessation"
                  ]
                }
              ],
              "gender": "male",
              "birthDate": "1949-04-12"
            },
            "request": {
              "method": "PUT",
              "url": "request-url"
            }
          },
          {
            "resource": {
              "resourceType": "Observation",
              "id": "observation-NPI-SmokingCessationIncrease-2",
              "status": "final",
              "note": [
                {
                  "text": "Patient began smoking 1.5 packs/day in 2020. This is the most recent observation and an increase from the previous."
                }
              ],
              "code": {
                "coding": [
                  {
                    "system": "http://loinc.org",
                    "code": "72166-2",
                    "display": "Tobacco smoking status"
                  }
                ]
              },
              "subject": {
                "reference": "Patient/NPI-SmokingCessationIncrease"
              },
              "effectivePeriod": {
                "start": "2020-03-13",
                "end": "2020-03-31"
              },
              "issued": "2020-03-31T00:00:00-07:00",
              "valueCodeableConcept": {
                "coding": [
                  {
                    "system": "http://snomed.info/sct",
                    "code": "428071000124103",
                    "display": "Heavy tobacco smoker (finding)"
                  }
                ]
              },
              "component": [
                {
                  "code": {
                    "coding": [
                      {
                        "system": "http://loinc.org",
                        "code": "8663-7",
                        "display": "Cigarettes smoked current (pack per day) - Reported"
                      }
                    ]
                  },
                  "valueQuantity": {
                    "value": 1.5,
                    "unit": "Packs/Day"
                  }
                }
              ]
            },
            "request": {
              "method": "PUT",
              "url": "request-url"
            }
          },
          {
            "resource": {
              "resourceType": "Observation",
              "id": "observation-NPI-SmokingCessationIncrease-1",
              "status": "final",
              "note": [
                {
                  "text": "Patient was smoking 1 pack/day as of 1/5/2019. Referred to counseling (related procedure)"
                }
              ],
              "code": {
                "coding": [
                  {
                    "system": "http://loinc.org",
                    "code": "72166-2",
                    "display": "Tobacco smoking status"
                  }
                ]
              },
              "subject": {
                "reference": "Patient/NPI-SmokingCessationIncrease"
              },
              "effectivePeriod": {
                "start": "2001-09-12",
                "end": "2019-01-05"
              },
              "issued": "2019-01-05T00:00:00-07:00",
              "valueCodeableConcept": {
                "coding": [
                  {
                    "system": "http://snomed.info/sct",
                    "code": "428071000124103",
                    "display": "Heavy tobacco smoker (finding)"
                  }
                ]
              },
              "component": [
                {
                  "code": {
                    "coding": [
                      {
                        "system": "http://loinc.org",
                        "code": "8663-7",
                        "display": "Cigarettes smoked current (pack per day) - Reported"
                      }
                    ]
                  },
                  "valueQuantity": {
                    "value": 1,
                    "unit": "Packs/Day"
                  }
                }
              ]
            },
            "request": {
              "method": "PUT",
              "url": "request-url"
            }
          },
          {
            "resource": {
              "resourceType": "Goal",
              "id": "goal-NPI-SmokingCessationIncrease-1",
              "lifecycleStatus": "planned",
              "achievementStatus": {
                "coding": [
                  {
                    "system": "http://terminology.hl7.org/CodeSystem/goal-achievement",
                    "version": "4.0.1",
                    "code": "in-progress",
                    "display": "In Progress"
                  }
                ]
              },
              "startDate": "2020-02-12",
              "description": {
                "text": "Goal of 135/85"
              },
              "subject": {
                "reference": "Patient/NPI-SmokingCessationIncrease"
              },
              "target": [
                {
                  "measure": {
                    "coding": [
                      {
                        "system": "http://loinc.org",
                        "version": "2.68",
                        "code": "8480-6",
                        "display": "Systolic blood pressure"
                      }
                    ]
                  },
                  "detailQuantity": {
                    "value": 135,
                    "unit": "mmHg",
                    "system": "http://unitsofmeasure.org",
                    "code": "mm[Hg]"
                  }
                },
                {
                  "measure": {
                    "coding": [
                      {
                        "system": "http://loinc.org",
                        "version": "2.68",
                        "code": "8462-4",
                        "display": "Diastolic blood pressure"
                      }
                    ]
                  },
                  "detailQuantity": {
                    "value": 85,
                    "unit": "mmHg",
                    "system": "http://unitsofmeasure.org",
                    "code": "mm[Hg]"
                  }
                }
              ]
            },
            "request": {
              "method": "PUT",
              "url": "request-url"
            }
          }
        ]
      }
    }
  }
}