{
  "hookInstance": "test",
  "fhirServer": "http://localhost:8080/cqf-ruler-r4/fhir",
  "hook": "patient-view",
  "applyCql": true,
  "context": {
    "userId": "Practitioner/example",
    "patientId": "H-HTNStage2AverageBPSetAmbulatory"
  },
  "prefetch": {
    "item1": {
      "response": {
        "status": "200 OK"
      },
      "resource": {
        "resourceType": "Bundle",
        "type": "transaction",
        "entry": [
          {
            "resource": {
              "resourceType": "Procedure",
              "id": "procedure-H-HTNStage2AverageBPSetAmbulatory-1",
              "note": [
                {
                  "text": "Qualifies as Ambulatory Procedure: Status='completed', Performance period > 12 hours, Code in ValueSet 2.16.840.1.113762.1.4.1047.511"
                }
              ],
              "status": "completed",
              "code": {
                "coding": [
                  {
                    "system": "http://snomed.info/sct",
                    "code": "164783007",
                    "display": "Ambulatory blood pressure recording (procedure)"
                  }
                ],
                "text": "Ambulatory blood pressure recording (procedure)"
              },
              "subject": {
                "reference": "Patient/H-HTNStage2AverageBPSetAmbulatory"
              },
              "performedPeriod": {
                "start": "2021-07-01T07:00:00-04:00",
                "end": "2021-07-01T20:00:00-04:00"
              }
            },
            "request": {
              "method": "PUT",
              "url": "request-url"
            }
          },
          {
            "resource": {
              "resourceType": "Patient",
              "id": "H-HTNStage2AverageBPSetAmbulatory",
              "active": true,
              "name": [
                {
                  "text": "HTN Stage 2 Average BP Set Ambulatory",
                  "family": "AverageBPSetAmbulatory",
                  "given": [
                    "HTNStage2"
                  ]
                }
              ],
              "gender": "female",
              "birthDate": "1971-11-10"
            },
            "request": {
              "method": "PUT",
              "url": "request-url"
            }
          },
          {
            "resource": {
              "resourceType": "Observation",
              "id": "observation-H-HTNStage2AverageBPSetAmbulatory-1",
              "status": "final",
              "note": [
                {
                  "text": "Home Blood Pressure Reading (no encounter)"
                }
              ],
              "category": [
                {
                  "coding": [
                    {
                      "system": "http://terminology.hl7.org/CodeSystem/observation-category",
                      "code": "vital-signs",
                      "display": "vital-signs"
                    }
                  ]
                }
              ],
              "code": {
                "coding": [
                  {
                    "system": "http://loinc.org",
                    "code": "55284-4",
                    "display": "Blood Pressure"
                  }
                ],
                "text": "Blood Pressure"
              },
              "subject": {
                "reference": "Patient/H-HTNStage2AverageBPSetAmbulatory"
              },
              "effectiveDateTime": "2021-07-03T15:16:21-05:00",
              "component": [
                {
                  "code": {
                    "coding": [
                      {
                        "system": "http://loinc.org",
                        "code": "8462-4",
                        "display": "Diastolic Blood Pressure"
                      }
                    ],
                    "text": "Diastolic Blood Pressure"
                  },
                  "valueQuantity": {
                    "value": 82.52660352979804,
                    "unit": "mm[Hg]",
                    "system": "http://unitsofmeasure.org",
                    "code": "mm[Hg]"
                  }
                },
                {
                  "code": {
                    "coding": [
                      {
                        "system": "http://loinc.org",
                        "code": "8480-6",
                        "display": "Systolic Blood Pressure"
                      }
                    ],
                    "text": "Systolic Blood Pressure"
                  },
                  "valueQuantity": {
                    "value": 163.65064054117963,
                    "unit": "mm[Hg]",
                    "system": "http://unitsofmeasure.org",
                    "code": "mm[Hg]"
                  }
                }
              ]
            },
            "request": {
              "method": "PUT",
              "url": "request-url"
            }
          },
          {
            "resource": {
              "resourceType": "Observation",
              "id": "observation-H-HTNStage2AverageBPSetAmbulatory-2",
              "status": "final",
              "note": [
                {
                  "text": "Home Blood Pressure Reading (no encounter)"
                }
              ],
              "category": [
                {
                  "coding": [
                    {
                      "system": "http://terminology.hl7.org/CodeSystem/observation-category",
                      "code": "vital-signs",
                      "display": "vital-signs"
                    }
                  ]
                }
              ],
              "code": {
                "coding": [
                  {
                    "system": "http://loinc.org",
                    "code": "55284-4",
                    "display": "Blood Pressure"
                  }
                ],
                "text": "Blood Pressure"
              },
              "subject": {
                "reference": "Patient/H-HTNStage2AverageBPSetAmbulatory"
              },
              "effectiveDateTime": "2021-07-07T08:16:21-05:00",
              "component": [
                {
                  "code": {
                    "coding": [
                      {
                        "system": "http://loinc.org",
                        "code": "8462-4",
                        "display": "Diastolic Blood Pressure"
                      }
                    ],
                    "text": "Diastolic Blood Pressure"
                  },
                  "valueQuantity": {
                    "value": 81.80326035473048,
                    "unit": "mm[Hg]",
                    "system": "http://unitsofmeasure.org",
                    "code": "mm[Hg]"
                  }
                },
                {
                  "code": {
                    "coding": [
                      {
                        "system": "http://loinc.org",
                        "code": "8480-6",
                        "display": "Systolic Blood Pressure"
                      }
                    ],
                    "text": "Systolic Blood Pressure"
                  },
                  "valueQuantity": {
                    "value": 165.2679261542749,
                    "unit": "mm[Hg]",
                    "system": "http://unitsofmeasure.org",
                    "code": "mm[Hg]"
                  }
                }
              ]
            },
            "request": {
              "method": "PUT",
              "url": "request-url"
            }
          },
          {
            "resource": {
              "resourceType": "Observation",
              "id": "observation-H-HTNStage2AverageBPSetAmbulatory-3",
              "status": "final",
              "note": [
                {
                  "text": "Ambulatory Blood Pressure Reading, part of Procedure"
                }
              ],
              "category": [
                {
                  "coding": [
                    {
                      "system": "http://terminology.hl7.org/CodeSystem/observation-category",
                      "code": "vital-signs",
                      "display": "vital-signs"
                    }
                  ]
                }
              ],
              "code": {
                "coding": [
                  {
                    "system": "http://loinc.org",
                    "code": "55284-4",
                    "display": "Blood Pressure"
                  }
                ],
                "text": "Blood Pressure"
              },
              "subject": {
                "reference": "Patient/H-HTNStage2AverageBPSetAmbulatory"
              },
              "partOf": [
                {
                  "reference": "Procedure/procedure-H-HTNStage2AverageBPSetAmbulatory-1"
                }
              ],
              "effectiveDateTime": "2021-07-01T15:16:21-05:00",
              "component": [
                {
                  "code": {
                    "coding": [
                      {
                        "system": "http://loinc.org",
                        "code": "8462-4",
                        "display": "Diastolic Blood Pressure"
                      }
                    ],
                    "text": "Diastolic Blood Pressure"
                  },
                  "valueQuantity": {
                    "value": 89.80326035473048,
                    "unit": "mm[Hg]",
                    "system": "http://unitsofmeasure.org",
                    "code": "mm[Hg]"
                  }
                },
                {
                  "code": {
                    "coding": [
                      {
                        "system": "http://loinc.org",
                        "code": "8480-6",
                        "display": "Systolic Blood Pressure"
                      }
                    ],
                    "text": "Systolic Blood Pressure"
                  },
                  "valueQuantity": {
                    "value": 158.2679261542749,
                    "unit": "mm[Hg]",
                    "system": "http://unitsofmeasure.org",
                    "code": "mm[Hg]"
                  }
                }
              ]
            },
            "request": {
              "method": "PUT",
              "url": "request-url"
            }
          },
          {
            "resource": {
              "resourceType": "Observation",
              "id": "observation-H-HTNStage2AverageBPSetAmbulatory-4",
              "status": "final",
              "note": [
                {
                  "text": "Ambulatory Blood Pressure Reading, part of Procedure"
                }
              ],
              "category": [
                {
                  "coding": [
                    {
                      "system": "http://terminology.hl7.org/CodeSystem/observation-category",
                      "code": "vital-signs",
                      "display": "vital-signs"
                    }
                  ]
                }
              ],
              "code": {
                "coding": [
                  {
                    "system": "http://loinc.org",
                    "code": "55284-4",
                    "display": "Blood Pressure"
                  }
                ],
                "text": "Blood Pressure"
              },
              "subject": {
                "reference": "Patient/H-HTNStage2AverageBPSetAmbulatory"
              },
              "partOf": [
                {
                  "reference": "Procedure/procedure-H-HTNStage2AverageBPSetAmbulatory-1"
                }
              ],
              "effectiveDateTime": "2021-07-01T17:16:21-05:00",
              "component": [
                {
                  "code": {
                    "coding": [
                      {
                        "system": "http://loinc.org",
                        "code": "8462-4",
                        "display": "Diastolic Blood Pressure"
                      }
                    ],
                    "text": "Diastolic Blood Pressure"
                  },
                  "valueQuantity": {
                    "value": 89.80326035473048,
                    "unit": "mm[Hg]",
                    "system": "http://unitsofmeasure.org",
                    "code": "mm[Hg]"
                  }
                },
                {
                  "code": {
                    "coding": [
                      {
                        "system": "http://loinc.org",
                        "code": "8480-6",
                        "display": "Systolic Blood Pressure"
                      }
                    ],
                    "text": "Systolic Blood Pressure"
                  },
                  "valueQuantity": {
                    "value": 154.2679261542749,
                    "unit": "mm[Hg]",
                    "system": "http://unitsofmeasure.org",
                    "code": "mm[Hg]"
                  }
                }
              ]
            },
            "request": {
              "method": "PUT",
              "url": "request-url"
            }
          }
        ]
      }
    }
  }
}