{
  "hookInstance": "test",
  "fhirServer": "https://api.logicahealth.org/htnu18r42/open",
  "hook": "patient-view",
  "applyCql": true,
  "context": {
    "userId": "Practitioner/example",
    "patientId": "AE-TreatedAndUntreated"
  },
  "prefetch": {
    "item1": {
      "response": {
        "status": "200 OK"
      },
      "resource": {
        "resourceType": "Bundle",
        "type": "transaction",
        "entry": [
          {
            "resource": {
              "resourceType": "Procedure",
              "id": "procedure-AE-TreatedAndUntreated-2",
              "note": [
                {
                  "text": "The patient had alcohol counseling related to an observation they are a heavy drinker"
                }
              ],
              "status": "completed",
              "code": {
                "coding": [
                  {
                    "system": "http://snomed.info/sct",
                    "code": "24165007",
                    "display": "Alcoholism counseling (procedure)"
                  }
                ],
                "text": "Alcoholism counseling (procedure)"
              },
              "subject": {
                "reference": "Patient/AE-TreatedAndUntreated"
              },
              "performedDateTime": "2021-05-30T11:00:00-06:00"
            },
            "request": {
              "method": "PUT",
              "url": "request-url"
            }
          },
          {
            "resource": {
              "resourceType": "Condition",
              "id": "condition-AE-TreatedAndUntreated-1",
              "note": [
                {
                  "text": "Indicates Preexisting Diagnosis of Hypertension"
                }
              ],
              "category": [
                {
                  "coding": [
                    {
                      "system": "http://terminology.hl7.org/CodeSystem/condition-category",
                      "code": "problem-list-item",
                      "display": "Problem List Item"
                    }
                  ],
                  "text": "Problem List Item"
                }
              ],
              "clinicalStatus": {
                "coding": [
                  {
                    "system": "http://terminology.hl7.org/CodeSystem/condition-clinical",
                    "code": "active"
                  }
                ]
              },
              "verificationStatus": {
                "coding": [
                  {
                    "system": "http://terminology.hl7.org/CodeSystem/condition-ver-status",
                    "code": "confirmed"
                  }
                ]
              },
              "code": {
                "coding": [
                  {
                    "system": "http://snomed.info/sct",
                    "code": "59621000",
                    "display": "Hypertension"
                  }
                ],
                "text": "Hypertension"
              },
              "subject": {
                "reference": "Patient/AE-TreatedAndUntreated"
              },
              "onsetDateTime": "2015-01-28T15:16:21-05:00",
              "recordedDate": "2015-01-28T15:16:21-05:00"
            },
            "request": {
              "method": "PUT",
              "url": "request-url"
            }
          },
          {
            "resource": {
              "resourceType": "Condition",
              "id": "condition-AE-TreatedAndUntreated-2",
              "note": [
                {
                  "text": "Indicates An Adverse Reaction that Could be Related to Medications"
                }
              ],
              "category": [
                {
                  "coding": [
                    {
                      "system": "http://terminology.hl7.org/CodeSystem/condition-category",
                      "code": "encounter-diagnosis",
                      "display": "Encounter Diagnosis"
                    }
                  ],
                  "text": "Encounter Diagnosis"
                }
              ],
              "clinicalStatus": {
                "coding": [
                  {
                    "system": "http://terminology.hl7.org/CodeSystem/condition-clinical",
                    "code": "active"
                  }
                ]
              },
              "verificationStatus": {
                "coding": [
                  {
                    "system": "http://terminology.hl7.org/CodeSystem/condition-ver-status",
                    "code": "confirmed"
                  }
                ]
              },
              "code": {
                "coding": [
                  {
                    "system": "http://hl7.org/fhir/sid/icd-10-cm",
                    "code": "N17.0",
                    "display": "Acute kidney problem"
                  }
                ],
                "text": "Acute kidney problem"
              },
              "subject": {
                "reference": "Patient/AE-TreatedAndUntreated"
              },
              "onsetDateTime": "2021-09-15T15:16:21-05:00",
              "recordedDate": "2021-09-15T15:16:21-05:00"
            },
            "request": {
              "method": "PUT",
              "url": "request-url"
            }
          },
          {
            "resource": {
              "resourceType": "Condition",
              "id": "condition-AE-TreatedAndUntreated-3",
              "note": [
                {
                  "text": "Indicates An Adverse Reaction that Could be Related to Medications"
                }
              ],
              "category": [
                {
                  "coding": [
                    {
                      "system": "http://terminology.hl7.org/CodeSystem/condition-category",
                      "code": "encounter-diagnosis",
                      "display": "Encounter Diagnosis"
                    }
                  ],
                  "text": "Encounter Diagnosis"
                }
              ],
              "clinicalStatus": {
                "coding": [
                  {
                    "system": "http://terminology.hl7.org/CodeSystem/condition-clinical",
                    "code": "active"
                  }
                ]
              },
              "verificationStatus": {
                "coding": [
                  {
                    "system": "http://terminology.hl7.org/CodeSystem/condition-ver-status",
                    "code": "confirmed"
                  }
                ]
              },
              "code": {
                "coding": [
                  {
                    "system": "http://snomed.info/sct",
                    "code": "32834005",
                    "display": "Brief loss of consciousness"
                  }
                ],
                "text": "Brief loss of consciousness"
              },
              "subject": {
                "reference": "Patient/AE-TreatedAndUntreated"
              },
              "onsetDateTime": "2021-09-17T15:16:21-05:00",
              "recordedDate": "2021-09-17T15:16:21-05:00"
            },
            "request": {
              "method": "PUT",
              "url": "request-url"
            }
          },
          {
            "resource": {
              "resourceType": "Patient",
              "id": "AE-TreatedAndUntreated",
              "active": true,
              "name": [
                {
                  "text": "Treated and Untreated",
                  "family": "Adverse Event",
                  "given": [
                    "Treated And Untreated"
                  ]
                }
              ],
              "gender": "male",
              "birthDate": "1992-07-17"
            },
            "request": {
              "method": "PUT",
              "url": "request-url"
            }
          },
          {
            "resource": {
              "resourceType": "AdverseEvent",
              "id": "adverseevent-AE-TreatedAndUntreated-1",
              "subject": {
                "reference": "Patient/AE-TreatedAndUntreated"
              },
              "event": {
                "coding": [
                  {
                    "system": "http://hl7.org/fhir/sid/icd-10-cm",
                    "code": "N17.0",
                    "display": "Acute kidney problem"
                  },
                  {
                    "system": "https://coach.ohsu.edu/",
                    "code": "coach-adverse-event",
                    "display": "Adverse Event reported by COACH"
                  }
                ],
                "text": "Acute kidney problem"
              },
              "date": "2021-09-15T07:25:02-07:00",
              "detected": "2021-09-15T07:25:02-07:00",
              "recordedDate": "2021-09-15T13:16:21-07:00",
              "resultingCondition": [
                {
                  "reference": "Condition/condition-AE-TreatedAndUntreated-2"
                }
              ],
              "outcome": {
                "coding": [
                  {
                    "system": "http://terminology.hl7.org/CodeSystem/adverse-event-outcome",
                    "code": "resolved"
                  }
                ]
              }
            },
            "request": {
              "method": "PUT",
              "url": "request-url"
            }
          },
          {
            "resource": {
              "resourceType": "AdverseEvent",
              "id": "adverseevent-AE-TreatedAndUntreated-2",
              "subject": {
                "reference": "Patient/AE-TreatedAndUntreated"
              },
              "event": {
                "coding": [
                  {
                    "system": "http://snomed.info/sct",
                    "code": "32834005",
                    "display": "Brief loss of consciousness"
                  },
                  {
                    "system": "https://coach.ohsu.edu/",
                    "code": "coach-adverse-event",
                    "display": "Adverse Event reported by COACH"
                  }
                ],
                "text": "Brief loss of consciousness"
              },
              "date": "2021-09-17T07:25:02-07:00",
              "detected": "2021-09-17T07:25:02-07:00",
              "recordedDate": "2021-09-17T13:16:21-07:00",
              "resultingCondition": [
                {
                  "reference": "Condition/condition-AE-TreatedAndUntreated-3"
                }
              ],
              "outcome": {
                "coding": [
                  {
                    "system": "http://terminology.hl7.org/CodeSystem/adverse-event-outcome",
                    "code": "ongoing"
                  }
                ]
              }
            },
            "request": {
              "method": "PUT",
              "url": "request-url"
            }
          },
          {
            "resource": {
              "resourceType": "Observation",
              "id": "observation-AE-TreatedAndUntreated-2",
              "status": "final",
              "note": [
                {
                  "text": "Home Blood Pressure Reading"
                }
              ],
              "extension": [
                {
                  "url": "http://hl7.org/fhir/us/vitals/StructureDefinition/MeasurementSettingExt",
                  "valueCoding": {
                    "system": "http://snomed.info/sct",
                    "code": "264362003"
                  }
                }
              ],
              "category": [
                {
                  "coding": [
                    {
                      "system": "http://terminology.hl7.org/CodeSystem/observation-category",
                      "code": "vital-signs",
                      "display": "vital-signs"
                    }
                  ]
                }
              ],
              "code": {
                "coding": [
                  {
                    "system": "http://loinc.org",
                    "code": "55284-4",
                    "display": "Blood Pressure"
                  }
                ],
                "text": "Blood Pressure"
              },
              "subject": {
                "reference": "Patient/AE-TreatedAndUntreated"
              },
              "effectiveDateTime": "2021-01-26T15:16:21-05:00",
              "component": [
                {
                  "code": {
                    "coding": [
                      {
                        "system": "http://loinc.org",
                        "code": "8462-4",
                        "display": "Diastolic Blood Pressure"
                      }
                    ],
                    "text": "Diastolic Blood Pressure"
                  },
                  "valueQuantity": {
                    "value": 98.52660352979804,
                    "unit": "mm[Hg]",
                    "system": "http://unitsofmeasure.org",
                    "code": "mm[Hg]"
                  }
                },
                {
                  "code": {
                    "coding": [
                      {
                        "system": "http://loinc.org",
                        "code": "8480-6",
                        "display": "Systolic Blood Pressure"
                      }
                    ],
                    "text": "Systolic Blood Pressure"
                  },
                  "valueQuantity": {
                    "value": 150.65064054117963,
                    "unit": "mm[Hg]",
                    "system": "http://unitsofmeasure.org",
                    "code": "mm[Hg]"
                  }
                }
              ]
            },
            "request": {
              "method": "PUT",
              "url": "request-url"
            }
          },
          {
            "resource": {
              "resourceType": "Observation",
              "id": "observation-AE-TreatedAndUntreated-3",
              "status": "final",
              "note": [
                {
                  "text": "Home Blood Pressure Reading"
                }
              ],
              "extension": [
                {
                  "url": "http://hl7.org/fhir/us/vitals/StructureDefinition/MeasurementSettingExt",
                  "valueCoding": {
                    "system": "http://snomed.info/sct",
                    "code": "264362003"
                  }
                }
              ],
              "category": [
                {
                  "coding": [
                    {
                      "system": "http://terminology.hl7.org/CodeSystem/observation-category",
                      "code": "vital-signs",
                      "display": "vital-signs"
                    }
                  ]
                }
              ],
              "code": {
                "coding": [
                  {
                    "system": "http://loinc.org",
                    "code": "55284-4",
                    "display": "Blood Pressure"
                  }
                ],
                "text": "Blood Pressure"
              },
              "subject": {
                "reference": "Patient/AE-TreatedAndUntreated"
              },
              "effectiveDateTime": "2021-02-26T15:16:21-05:00",
              "component": [
                {
                  "code": {
                    "coding": [
                      {
                        "system": "http://loinc.org",
                        "code": "8462-4",
                        "display": "Diastolic Blood Pressure"
                      }
                    ],
                    "text": "Diastolic Blood Pressure"
                  },
                  "valueQuantity": {
                    "value": 88.52660352979804,
                    "unit": "mm[Hg]",
                    "system": "http://unitsofmeasure.org",
                    "code": "mm[Hg]"
                  }
                },
                {
                  "code": {
                    "coding": [
                      {
                        "system": "http://loinc.org",
                        "code": "8480-6",
                        "display": "Systolic Blood Pressure"
                      }
                    ],
                    "text": "Systolic Blood Pressure"
                  },
                  "valueQuantity": {
                    "value": 140.65064054117963,
                    "unit": "mm[Hg]",
                    "system": "http://unitsofmeasure.org",
                    "code": "mm[Hg]"
                  }
                }
              ]
            },
            "request": {
              "method": "PUT",
              "url": "request-url"
            }
          },
          {
            "resource": {
              "resourceType": "Observation",
              "id": "observation-AE-TreatedAndUntreated-4",
              "status": "final",
              "note": [
                {
                  "text": "Home Blood Pressure Reading"
                }
              ],
              "extension": [
                {
                  "url": "http://hl7.org/fhir/us/vitals/StructureDefinition/MeasurementSettingExt",
                  "valueCoding": {
                    "system": "http://snomed.info/sct",
                    "code": "264362003"
                  }
                }
              ],
              "category": [
                {
                  "coding": [
                    {
                      "system": "http://terminology.hl7.org/CodeSystem/observation-category",
                      "code": "vital-signs",
                      "display": "vital-signs"
                    }
                  ]
                }
              ],
              "code": {
                "coding": [
                  {
                    "system": "http://loinc.org",
                    "code": "55284-4",
                    "display": "Blood Pressure"
                  }
                ],
                "text": "Blood Pressure"
              },
              "subject": {
                "reference": "Patient/AE-TreatedAndUntreated"
              },
              "effectiveDateTime": "2021-03-26T15:16:21-05:00",
              "component": [
                {
                  "code": {
                    "coding": [
                      {
                        "system": "http://loinc.org",
                        "code": "8462-4",
                        "display": "Diastolic Blood Pressure"
                      }
                    ],
                    "text": "Diastolic Blood Pressure"
                  },
                  "valueQuantity": {
                    "value": 89.52660352979804,
                    "unit": "mm[Hg]",
                    "system": "http://unitsofmeasure.org",
                    "code": "mm[Hg]"
                  }
                },
                {
                  "code": {
                    "coding": [
                      {
                        "system": "http://loinc.org",
                        "code": "8480-6",
                        "display": "Systolic Blood Pressure"
                      }
                    ],
                    "text": "Systolic Blood Pressure"
                  },
                  "valueQuantity": {
                    "value": 139.65064054117963,
                    "unit": "mm[Hg]",
                    "system": "http://unitsofmeasure.org",
                    "code": "mm[Hg]"
                  }
                }
              ]
            },
            "request": {
              "method": "PUT",
              "url": "request-url"
            }
          },
          {
            "resource": {
              "resourceType": "Observation",
              "id": "observation-AE-TreatedAndUntreated-5",
              "status": "final",
              "note": [
                {
                  "text": "Home Blood Pressure Reading"
                }
              ],
              "extension": [
                {
                  "url": "http://hl7.org/fhir/us/vitals/StructureDefinition/MeasurementSettingExt",
                  "valueCoding": {
                    "system": "http://snomed.info/sct",
                    "code": "264362003"
                  }
                }
              ],
              "category": [
                {
                  "coding": [
                    {
                      "system": "http://terminology.hl7.org/CodeSystem/observation-category",
                      "code": "vital-signs",
                      "display": "vital-signs"
                    }
                  ]
                }
              ],
              "code": {
                "coding": [
                  {
                    "system": "http://loinc.org",
                    "code": "55284-4",
                    "display": "Blood Pressure"
                  }
                ],
                "text": "Blood Pressure"
              },
              "subject": {
                "reference": "Patient/AE-TreatedAndUntreated"
              },
              "effectiveDateTime": "2021-04-26T15:16:21-05:00",
              "component": [
                {
                  "code": {
                    "coding": [
                      {
                        "system": "http://loinc.org",
                        "code": "8462-4",
                        "display": "Diastolic Blood Pressure"
                      }
                    ],
                    "text": "Diastolic Blood Pressure"
                  },
                  "valueQuantity": {
                    "value": 87.52660352979804,
                    "unit": "mm[Hg]",
                    "system": "http://unitsofmeasure.org",
                    "code": "mm[Hg]"
                  }
                },
                {
                  "code": {
                    "coding": [
                      {
                        "system": "http://loinc.org",
                        "code": "8480-6",
                        "display": "Systolic Blood Pressure"
                      }
                    ],
                    "text": "Systolic Blood Pressure"
                  },
                  "valueQuantity": {
                    "value": 136.65064054117963,
                    "unit": "mm[Hg]",
                    "system": "http://unitsofmeasure.org",
                    "code": "mm[Hg]"
                  }
                }
              ]
            },
            "request": {
              "method": "PUT",
              "url": "request-url"
            }
          },
          {
            "resource": {
              "resourceType": "Observation",
              "id": "observation-AE-TreatedAndUntreated-6",
              "status": "final",
              "note": [
                {
                  "text": "Home Blood Pressure Reading"
                }
              ],
              "extension": [
                {
                  "url": "http://hl7.org/fhir/us/vitals/StructureDefinition/MeasurementSettingExt",
                  "valueCoding": {
                    "system": "http://snomed.info/sct",
                    "code": "264362003"
                  }
                }
              ],
              "category": [
                {
                  "coding": [
                    {
                      "system": "http://terminology.hl7.org/CodeSystem/observation-category",
                      "code": "vital-signs",
                      "display": "vital-signs"
                    }
                  ]
                }
              ],
              "code": {
                "coding": [
                  {
                    "system": "http://loinc.org",
                    "code": "55284-4",
                    "display": "Blood Pressure"
                  }
                ],
                "text": "Blood Pressure"
              },
              "subject": {
                "reference": "Patient/AE-TreatedAndUntreated"
              },
              "effectiveDateTime": "2021-05-26T15:16:21-05:00",
              "component": [
                {
                  "code": {
                    "coding": [
                      {
                        "system": "http://loinc.org",
                        "code": "8462-4",
                        "display": "Diastolic Blood Pressure"
                      }
                    ],
                    "text": "Diastolic Blood Pressure"
                  },
                  "valueQuantity": {
                    "value": 91.52660352979804,
                    "unit": "mm[Hg]",
                    "system": "http://unitsofmeasure.org",
                    "code": "mm[Hg]"
                  }
                },
                {
                  "code": {
                    "coding": [
                      {
                        "system": "http://loinc.org",
                        "code": "8480-6",
                        "display": "Systolic Blood Pressure"
                      }
                    ],
                    "text": "Systolic Blood Pressure"
                  },
                  "valueQuantity": {
                    "value": 137.65064054117963,
                    "unit": "mm[Hg]",
                    "system": "http://unitsofmeasure.org",
                    "code": "mm[Hg]"
                  }
                }
              ]
            },
            "request": {
              "method": "PUT",
              "url": "request-url"
            }
          },
          {
            "resource": {
              "resourceType": "Observation",
              "id": "observation-AE-TreatedAndUntreated-7",
              "status": "final",
              "note": [
                {
                  "text": "Home Blood Pressure Reading"
                }
              ],
              "extension": [
                {
                  "url": "http://hl7.org/fhir/us/vitals/StructureDefinition/MeasurementSettingExt",
                  "valueCoding": {
                    "system": "http://snomed.info/sct",
                    "code": "264362003"
                  }
                }
              ],
              "category": [
                {
                  "coding": [
                    {
                      "system": "http://terminology.hl7.org/CodeSystem/observation-category",
                      "code": "vital-signs",
                      "display": "vital-signs"
                    }
                  ]
                }
              ],
              "code": {
                "coding": [
                  {
                    "system": "http://loinc.org",
                    "code": "55284-4",
                    "display": "Blood Pressure"
                  }
                ],
                "text": "Blood Pressure"
              },
              "subject": {
                "reference": "Patient/AE-TreatedAndUntreated"
              },
              "effectiveDateTime": "2021-06-26T15:16:21-05:00",
              "component": [
                {
                  "code": {
                    "coding": [
                      {
                        "system": "http://loinc.org",
                        "code": "8462-4",
                        "display": "Diastolic Blood Pressure"
                      }
                    ],
                    "text": "Diastolic Blood Pressure"
                  },
                  "valueQuantity": {
                    "value": 88.52660352979804,
                    "unit": "mm[Hg]",
                    "system": "http://unitsofmeasure.org",
                    "code": "mm[Hg]"
                  }
                },
                {
                  "code": {
                    "coding": [
                      {
                        "system": "http://loinc.org",
                        "code": "8480-6",
                        "display": "Systolic Blood Pressure"
                      }
                    ],
                    "text": "Systolic Blood Pressure"
                  },
                  "valueQuantity": {
                    "value": 144.65064054117963,
                    "unit": "mm[Hg]",
                    "system": "http://unitsofmeasure.org",
                    "code": "mm[Hg]"
                  }
                }
              ]
            },
            "request": {
              "method": "PUT",
              "url": "request-url"
            }
          },
          {
            "resource": {
              "resourceType": "Observation",
              "id": "observation-AE-TreatedAndUntreated-1",
              "status": "final",
              "note": [
                {
                  "text": "Patient is female and has more than 2 drinks a day. Refer to counseling."
                }
              ],
              "code": {
                "coding": [
                  {
                    "system": "http://loinc.org",
                    "version": "2.69",
                    "code": "11287-0",
                    "display": "Alcoholic drinks per drinking day - Reported"
                  }
                ]
              },
              "subject": {
                "reference": "Patient/AE-TreatedAndUntreated"
              },
              "effectiveDateTime": "2021-05-27T10:00:00-07:00",
              "issued": "2021-05-27T00:00:00-07:00",
              "valueQuantity": {
                "value": 4.1,
                "unit": "Drinks/Day"
              }
            },
            "request": {
              "method": "PUT",
              "url": "request-url"
            }
          },
          {
            "resource": {
              "resourceType": "Goal",
              "id": "goal-AE-TreatedAndUntreated-1",
              "lifecycleStatus": "active",
              "achievementStatus": {
                "coding": [
                  {
                    "system": "http://terminology.hl7.org/CodeSystem/goal-achievement",
                    "version": "4.0.1",
                    "code": "in-progress",
                    "display": "In Progress"
                  }
                ]
              },
              "startDate": "2021-07-12",
              "description": {
                "text": "Goal of 135/85"
              },
              "subject": {
                "reference": "Patient/AE-TreatedAndUntreated"
              },
              "target": [
                {
                  "measure": {
                    "coding": [
                      {
                        "system": "http://loinc.org",
                        "version": "2.68",
                        "code": "8480-6",
                        "display": "Systolic blood pressure"
                      }
                    ]
                  },
                  "detailQuantity": {
                    "value": 135,
                    "unit": "mmHg",
                    "system": "http://unitsofmeasure.org",
                    "code": "mm[Hg]"
                  }
                },
                {
                  "measure": {
                    "coding": [
                      {
                        "system": "http://loinc.org",
                        "version": "2.68",
                        "code": "8462-4",
                        "display": "Diastolic blood pressure"
                      }
                    ]
                  },
                  "detailQuantity": {
                    "value": 85,
                    "unit": "mmHg",
                    "system": "http://unitsofmeasure.org",
                    "code": "mm[Hg]"
                  }
                }
              ]
            },
            "request": {
              "method": "PUT",
              "url": "request-url"
            }
          }
        ]
      }
    }
  }
}